global_

_refine_ls_goodness_of_fit_all 1417.564
_refine_ls_number_reflns 2113

data_powder1

_setup_wavelength 2.4000
_setup_field 2.50
_setup_offset_2theta -0.1882(32)

_pd_instr_resolution_U 3.754(18)
_pd_instr_resolution_V -3.954(20)
_pd_instr_resolution_W 1.1811(57)
_pd_instr_resolution_X 0.7499(17)
_pd_instr_resolution_Y 0.00000

_diffrn_radiation_polarization 1.0
_diffrn_radiation_efficiency 1.0

_chi2_sum True
_chi2_diff True
_chi2_up False
_chi2_down False

_range_2theta_min 16.0
_range_2theta_max 125.0

_pd_instr_reflex_asymmetry_p1 0.5489(27)
_pd_instr_reflex_asymmetry_p2 0.20674(67)
_pd_instr_reflex_asymmetry_p3 -1.304(11)
_pd_instr_reflex_asymmetry_p4 -0.4997(14)

_refine_ls_goodness_of_fit_all 1417.564
_refine_ls_number_reflns 2113
_refine_ls_weighting_scheme sigma

loop_
_phase_label
_phase_scale
_phase_igsize
  phase1   5.2012(14)   0.0

loop_
_pd_background_2theta
_pd_background_intensity
   17.0    610.3910022321259
   20.0    608.6061272616328
   30.0    583.2276214042249
   40.0     571.860088105868
   55.0    635.2133004930868
   60.0    646.0243970866184
   75.0    579.5827895238951
   85.0   462.13391407105905
  100.0    572.8031399497061
  120.0    555.7099635732841

loop_
_pd_meas_2theta
_pd_meas_intensity_plus
_pd_meas_intensity_plus_sigma
_pd_meas_intensity_minus
_pd_meas_intensity_minus_sigma
    6.05   385.561   3.57417    383.17    3.5621
    6.15   385.956   3.57474   383.069    3.5627
    6.25    381.59   3.55479   377.669   3.53487
    6.35   371.038    3.5066   371.584   3.51067
    6.45   364.855   3.47607   368.831   3.49513
    6.55   369.762   3.49861   368.038   3.48981
    6.65   365.562   3.47918   358.715   3.44838
    6.75   364.528   3.47896   365.877    3.4836
    6.85   360.361   3.45529   358.208    3.4475
    6.95   355.356   3.43327   356.443    3.4372
    7.05   350.856   3.41152    356.81   3.44202
    7.15   356.821   3.43957   355.929     3.434
    7.25   358.328   3.44674   357.276   3.44443
    7.35   344.766   3.38168   349.159   3.40566
    7.45   343.349   3.37103   348.418   3.40329
    7.55   348.545   3.40275   344.344   3.38015
    7.65   336.869   3.34338    345.82   3.38747
    7.75   343.522   3.37322   342.923   3.37385
    7.85   344.776   3.38178   346.057   3.38929
    7.95    345.14   3.38584   342.104   3.36873
    8.05   338.126   3.34795   337.473   3.34477
    8.15   338.886   3.35481   337.965   3.35046
    8.25   339.224    3.3516   331.191   3.31207
    8.35   333.311   3.32581   338.699    3.3533
    8.45   339.055   3.35369   337.333   3.34667
    8.55   336.622    3.3406   333.131   3.32533
    8.65   335.232   2.35334   336.651   2.35796
    8.75   330.059   2.33422   340.035   2.37172
    8.85   335.973   2.35563   334.317   2.34929
    8.95    339.47   2.36929   332.718   2.34442
    9.05   327.489   2.32584   333.881   2.34807
    9.15    332.14   2.34192   329.536    2.3314
    9.25   331.526   2.33992   331.609   2.34033
    9.35   332.643   2.34546   332.904   2.34631
    9.45   333.462   2.34693   327.711   2.32829
    9.55   331.223   2.34116   335.133   2.35356
    9.65   329.265   2.33339   330.172   2.33637
    9.75   335.497   2.35444   326.621   2.32208
    9.85     325.5   2.31903   332.241   2.34281
    9.95   327.027   2.32414   328.015   2.32939
   10.05   326.551   2.32222   326.209   2.32244
   10.15   325.535   2.32046   328.109   2.32842
   10.25   327.101   2.32378   326.973   2.32428
   10.35   324.791   2.31522   330.896   2.33926
   10.45   324.435   2.31515    325.16   2.31767
   10.55   326.338   2.32223   329.762   2.33399
   10.65   325.452   2.31799   325.464   2.31925
   10.75   326.572   2.32419   326.306   2.32348
   10.85   318.779   2.29391   324.217   2.31377
   10.95   325.328   2.31869   321.773   2.30586
   11.05   322.154   2.30652   323.269   2.31202
   11.15   321.214    2.3028   317.338     2.289
   11.25    317.37   2.08581    320.53   2.09699
   11.35   317.047   1.85777   321.478   1.87153
   11.45   319.007   1.86302   318.253     1.861
   11.55   317.918    1.8606   317.964   1.85988
   11.65   319.226   1.86389   315.623   1.85334
   11.75   321.644   1.87145   318.825   1.86218
   11.85   317.852   1.86041   319.667   1.86516
   11.95   317.774    1.8595   317.541   1.85999
   12.05   317.775   2.07381   318.507   2.07854
   12.15   321.643   2.28605   315.324   2.26168
   12.25   320.419   2.27994   316.456   2.26555
   12.35   317.237   2.26789   316.359   2.26457
   12.45   321.203   2.28241   317.746   2.26892
   12.55   320.657   2.27927   320.822   2.28212
   12.65   323.357   2.28992   321.729   2.28452
   12.75   320.089   2.27823   324.977   2.29615
   12.85   323.958   2.29142   321.838   2.28455
   12.95   324.502   2.29343   322.918    2.2887
   13.05   324.169   2.29165   320.279   2.27888
   13.15   323.468   2.29013   325.388   2.29666
   13.25   323.596      2.29   320.576   2.28002
   13.35   318.655   2.27384    317.34    2.2699
   13.45    318.02    2.2703   320.466   2.27935
   13.55   317.214    2.2672   313.883   2.25512
   13.65   319.213   2.27459   315.477   2.26249
   13.75   312.643   2.25157   312.212   2.24939
   13.85   311.182   2.24524   309.784   2.24146
   13.95   312.348   2.25079   308.838   2.23884
   14.05   312.925   1.84026   311.737   1.83687
   14.15   309.149   1.82954   313.508   1.84254
   14.25   310.163   1.83272   304.985    1.8161
   14.35   313.211   1.84146   311.919   1.83746
   14.45   311.596    1.8367   309.941   1.83125
   14.55   309.744   1.83085   313.133   1.84082
   14.65   311.035    2.0475     310.5   2.04641
   14.75   312.222   2.24632   313.488   2.24985
   14.85   310.944   2.24043   308.906   2.23324
   14.95   311.372   2.24189    309.39   2.23434
   15.05   311.211   2.24101   304.049   2.21497
   15.15   312.465   2.24499   316.028   2.25711
   15.25   307.319   2.22718   313.399   2.24903
   15.35   309.098   2.23323   316.331   2.26032
   15.45   313.143   2.24644   309.684   2.23618
   15.55   315.909   2.25741   310.801   2.23951
   15.65   310.235   2.23724   309.486   2.23527
   15.75   311.527   2.24091   314.058   2.25075
   15.85   309.833   2.23568   311.287    2.2418
   15.95   310.658   2.23976   310.055   2.23728
   16.05   309.958   2.23623   312.744   2.24653
   16.15   310.687    2.2394   313.736   2.25087
   16.25   310.367    2.2368   310.162   2.23572
   16.35   307.974   2.22878   309.816   2.23637
   16.45   306.999   2.22492   310.006   2.23629
   16.55   312.125    2.2444   305.663   2.22185
   16.65   309.807   2.23578   306.227   2.22236
   16.75     312.3   2.05063   309.389   2.04193
   16.85   308.606   1.82082   310.059   1.82558
   16.95   305.217   1.81155   308.545   1.82024
   17.05   306.467   1.81542   306.721   1.81536
   17.15   307.755   1.81859   304.178   1.80828
   17.25   311.371   1.82954   307.422    1.8178
   17.35   305.437   2.22544   308.878   2.23772
   17.45   310.243    2.2422   308.633   2.23794
   17.55    308.09   2.23607   303.389   2.21842
   17.65   306.728   2.23147   306.895   2.23039
   17.75   310.457   2.24345   307.617   2.23316
   17.85   311.174   2.24594   311.434   2.24624
   17.95   309.718   2.24051   309.702   2.24116
   18.05   307.144   2.23161   308.401   2.23644
   18.15   305.888   2.22678   309.106   2.23943
   18.25   306.334   2.22707   308.069   2.23538
   18.35   310.135   2.24253   309.445   2.24082
   18.45   306.909    2.2306   309.826   2.24048
   18.55   307.096    2.2299   307.594   2.23352
   18.65   308.222   2.23543   306.868   2.23107
   18.75   307.897   2.23472    306.26   2.22848
   18.85   308.043   2.23484   308.998   2.23912
   18.95   309.485   2.23959   306.544   2.22866
   19.05   310.967   2.24404   309.298   2.23917
   19.15   308.617   2.23641   308.093    2.2342
   19.25   309.159   2.23881   310.812   2.24525
   19.35    311.48   2.24785   315.512   2.26239
   19.45   314.551   2.07591   313.275   2.07045
   19.55   317.382   1.88252   319.528   1.88997
   19.65   317.568   1.88422   323.472   1.90126
   19.75   324.391   1.90506   325.885   1.90759
   19.85   328.819   1.91654   332.823    1.9289
   19.95   332.148   1.92647   334.306   1.93254
   20.05   328.985   2.15427   334.034   2.17032
   20.15   329.452   2.36685   330.395   2.37246
   20.25   322.962   2.34499   323.374   2.34637
   20.35   317.493   2.32616   322.529    2.3429
   20.45   317.055   2.32283    311.53   2.30309
   20.55   313.529   2.30948   308.802    2.2917
   20.65    307.85   2.28861   309.784   2.29539
   20.75   306.358   2.28326   311.022   2.30096
   20.85   312.868   2.30675   310.354   2.29923
   20.95   310.717    2.2989   309.094   2.29368
   21.05   309.987    2.2962   312.805   2.30741
   21.15   310.336   2.29772   311.963   2.30427
   21.25   309.888   2.29515   313.249   2.30861
   21.35   306.895   2.28549   310.163    2.2975
   21.45   306.927   2.28535   314.591   2.31367
   21.55   311.814   2.30386   306.413   2.28469
   21.65   302.909   2.26964   301.423   2.26461
   21.75   307.534   2.28677   310.116   2.29608
   21.85   309.856   2.29567   310.315   2.29838
   21.95   308.372   2.29053    308.48   2.29089
   22.05   309.517   2.29512   309.942   2.29757
   22.15   309.425   1.88425   309.332   1.88435
   22.25   309.908   1.88562   311.983   1.89262
   22.35    312.13   1.89316   313.069   1.89551
   22.45   312.587   1.89485   309.546    1.8844
   22.55   312.703   1.89437   314.126   1.89861
   22.65   312.924   1.89505   314.585   1.89968
   22.75   313.745    1.8979   309.142   1.88396
   22.85   310.826   2.35515   313.167   2.36476
   22.95   312.548   2.36157   311.484   2.35797
   23.05   308.902    2.3484   313.578   2.36496
   23.15   308.286   2.34528   306.591   2.33944
   23.25   310.626   2.35356   307.301   2.33982
   23.35   305.778    2.3348    303.41   2.32643
   23.45   304.267   2.33013   305.603   2.33509
   23.55   305.235   2.33187   301.214    2.3193
   23.65     304.2   2.32996   309.219    2.3481
   23.75   305.608   2.33364   305.167   2.33306
   23.85   301.069   2.31605   306.784   2.33996
   23.95   310.032   2.35116   305.862   2.33523
   24.05   307.364   2.34186   309.611   2.35013
   24.15   304.309   2.32942   305.577   2.33469
   24.25   309.253   2.34944   309.217   2.34965
   24.35   310.873   2.35334    311.23    2.3553
   24.45   307.883   2.34343   309.769   2.35038
   24.55   311.025   2.35456   311.852   2.35893
   24.65   311.344   2.35522   309.053   2.34731
   24.75   314.575   2.36931   314.583   2.36944
   24.85   313.159   1.94452   314.441   1.94915
   24.95   314.341   1.94807   314.523   1.94886
   25.05   314.687   1.94966   315.197   1.95035
   25.15   314.589   1.94928   316.865   1.95569
   25.25   313.395   1.94558   312.141   1.94086
   25.35   312.418   1.94206   309.228   1.93222
   25.45   310.157   1.93527    314.59   1.94977
   25.55   315.103   2.39402   315.546   2.39594
   25.65   314.975   2.39367   313.785   2.38912
   25.75   318.155   2.40558   320.613   2.41356
   25.85   320.421   2.41348   313.911   2.38883
   25.95   320.392   2.41306   320.657   2.41253
   26.05   324.905   2.42934   321.738   2.41935
   26.15   326.728   2.43752    326.69    2.4371
   26.25   335.565   2.46859   336.469   2.47411
   26.35   351.319    2.5265   347.551   2.51321
   26.45   371.663   2.59866   370.255   2.59497
   26.55   399.592   2.69374   401.429   2.70079
   26.65   435.996   2.81423   430.779   2.79827
   26.75   465.315   2.90833   464.995   2.90792
   26.85   485.927   2.97204   478.473   2.94938
   26.95   485.624   2.97158   470.768   2.92617
   27.05   464.729   2.90495   453.709   2.87002
   27.15   428.493   2.79014     424.8   2.77956
   27.25   388.989   2.65821    386.83    2.6507
   27.35   363.304    2.5685   363.113    2.5692
   27.45   351.667   2.52939   349.258    2.5199
   27.55   346.334   2.28482   342.881   2.27356
   27.65   341.692   2.01931   342.727   2.02302
   27.75   338.991   2.01222   336.214   2.00316
   27.85   335.519   2.00222   335.412   2.00062
   27.95   335.408   2.00123   333.586   1.99577
   28.05   333.704    1.9959    336.39   2.00424
   28.15   341.383   2.26215   340.748   2.26356
   28.25   346.705   2.50134   344.877   2.49649
   28.35   355.867    2.5361   349.659   2.51326
   28.45   359.783   2.55037   354.584   2.52997
   28.55   370.162   2.58514   366.341   2.57172
   28.65   391.284   2.65774   390.831    2.6554
   28.75   418.734   2.74918   418.834   2.75037
   28.85   471.791   2.91869   463.974   2.89481
   28.95   547.028   3.14244     541.2   3.12702
   29.05   627.318   3.36321   620.221   3.34707
   29.15   714.605   3.59225    693.75   3.54069
   29.25   744.548   3.66635   728.869    3.6264
   29.35    731.48   3.63175   710.934   3.58332
   29.45   658.247   3.44736   645.065   3.41357
   29.55   555.815   3.16854   550.157   3.15195
   29.65   475.079    2.9288   473.293   2.92435
   29.75   415.392   2.73812   416.536   2.74156
   29.85   378.057   2.61108   379.058   2.61588
   29.95   363.011   2.55959   358.348   2.54276
   30.05   355.842   2.53469   354.022   2.52873
   30.15   347.377   2.50509   351.888   2.52135
   30.25   349.617   2.03255   354.011    2.0458
   30.35   351.711    2.0385    354.86   2.04886
   30.45   357.972   2.05775   355.689   2.05006
   30.55    365.44   2.07972   363.773    2.0737
   30.65   376.443   2.10926   376.551   2.10993
   30.75   396.734    2.1653   397.766    2.1676
   30.85   443.859   2.54828   442.126   2.54478
   30.95   501.214    2.9446   504.843   2.95614
   31.05   588.606     3.191   598.722    3.2187
   31.15    698.39    3.4766   714.997   3.51602
   31.25   803.235   3.72724   827.164   3.78336
   31.35   875.939    3.8913   893.103   3.92737
   31.45   885.922   3.91289   903.608    3.9529
   31.55   826.727   3.78164   840.776   3.81345
   31.65   724.536   3.53727   734.113   3.56491
   31.75   625.674   3.29002   630.689   3.30172
   31.85    544.85   3.06789   553.328   3.09315
   31.95   512.172   2.97423    513.44   2.98048
   32.05   508.088   2.96343   502.036   2.94567
   32.15   528.321   3.02293   521.502   3.00305
   32.25   581.262   3.16977   579.403   3.16529
   32.35   672.571   3.41134   665.824   3.39464
   32.45   796.064   3.70784   783.548   3.67948
   32.55   926.665   4.00292   916.295   3.98006
   32.65   1028.65   4.21598   1019.14   4.19863
   32.75   1059.17   4.27708   1039.93    4.2394
   32.85   1016.38    4.1931   985.282   4.12863
   32.95   877.764   3.58618   864.339   3.56003
   33.05   719.682   2.90831   714.689   2.89847
   33.15   584.762   2.62239   580.501   2.61254
   33.25   490.526   2.40191    490.67   2.40064
   33.35   436.396   2.26544   433.457   2.25731
   33.45   401.467    2.1727   401.355   2.17279
   33.55   387.869   2.13609   386.835   2.13314
   33.65   393.818   2.64373    395.49   2.65119
   33.75   408.977   2.69613    409.04   2.69572
   33.85   443.847   2.80916   444.314   2.80851
   33.95   487.032   2.94066   498.959   2.97638
   34.05   547.735   3.11838   566.847   3.17135
   34.15   613.176   3.29917   627.449   3.33839
   34.25   645.507   3.38566   661.529   3.42784
   34.35   632.575   3.35118   643.752   3.38213
   34.45   573.557   3.18909   582.797   3.21762
   34.55   495.206   2.96552   506.083   2.99894
   34.65   433.829   2.77537    435.85   2.78097
   34.75   384.795   2.61222   387.409   2.62321
   34.85   358.759    2.5239   362.515   2.53774
   34.95   345.381   2.47694   347.741   2.48507
   35.05   341.274   2.46172   338.364    2.4521
   35.15    336.09   2.44243   334.359   2.43585
   35.25   327.284   2.40924    329.24   2.41768
   35.35   328.147   2.41337   326.811   2.40811
   35.45   322.468   2.39286   325.709   2.40535
   35.55   327.754   2.41309   327.164   2.41097
   35.65   326.356   1.94864   324.259   1.94285
   35.75   323.683   1.94052   323.499   1.94116
   35.85   322.544   1.93822   327.521   1.95205
   35.95   326.313   1.95009   327.619   1.95278
   36.05    329.28    1.9575   329.034   1.95711
   36.15   330.797   1.96195   331.865   1.96466
   36.25   336.918   2.22109   334.767   2.21366
   36.35   342.242   2.45741   342.054   2.45751
   36.45   352.708   2.49465   350.683   2.48787
   36.55   372.919   2.56576   372.912    2.5645
   36.65   393.914   2.63613   384.132   2.60388
   36.75   408.914   2.68517   404.405   2.66906
   36.85   423.329   2.73172   411.199   2.69311
   36.95   426.336   2.74269   415.876   2.70868
   37.05   402.478   2.66261   401.838   2.66375
   37.15   389.953   2.62317   385.614   2.60741
   37.25   367.847   2.54585   366.049   2.54084
   37.35   356.375   2.50565   361.384   2.52537
   37.45   356.408   2.50668   351.139   2.48803
   37.55   357.634   2.51189     356.3   2.50692
   37.65   358.897    2.5155   364.603   2.53588
   37.75   355.092   2.50338   367.358   2.54662
   37.85   360.035   2.51834    359.78    2.5181
   37.95   356.144   2.50625    355.47   2.50362
   38.05   348.497   2.47835   357.737   2.51231
   38.15   353.006   2.49376   352.915   2.49424
   38.25    357.15   2.51035   354.571   2.50139
   38.35   369.623   2.08507   362.922   2.06676
   38.45    381.73   2.11883   379.127   2.11184
   38.55   400.603   2.17114   396.543   2.15911
   38.65   436.935   2.26736   433.786   2.25847
   38.75   496.839   2.41783    487.65   2.39433
   38.85   590.818   2.63592   592.624   2.64007
   38.95   764.429   2.99861   763.503   2.99803
   39.05   1005.18    4.1714   987.157    4.1342
   39.15   1297.47   4.73957   1296.94   4.73855
   39.25   1562.61   5.20086   1546.82    5.1719
   39.35   1697.42   5.41919   1662.25   5.36275
   39.45   1596.73   5.25529   1584.66   5.23216
   39.55    1339.4   4.81196   1340.05   4.81688
   39.65   1042.92   4.24856   1034.25   4.23029
   39.75   794.093   3.70465   791.026   3.70087
   39.85   642.498   3.33317   649.858   3.35263
   39.95   579.992   3.16695    590.16   3.19613
   40.05   579.054   3.16347   571.644   3.14418
   40.15   621.118    3.2769   632.148   3.30695
   40.25    726.91    3.5462   737.461   3.57263
   40.35   905.483   3.95789   910.605   3.96952
   40.45   1118.65   4.39983   1136.62   4.43569
   40.55   1374.28   4.87346   1408.17   4.93265
   40.65   1573.84    5.2167   1608.47   5.27667
   40.75   1628.56   5.30612   1646.34   5.33482
   40.85   1475.45   5.04972   1500.45   5.09497
   40.95   1184.78   4.21435   1206.12   4.24979
   41.05   865.981   3.25932     880.5   3.28854
   41.15   636.662   2.79507   640.206   2.80404
   41.25    500.69   2.48021   504.838   2.48849
   41.35   428.133   2.29309    429.67   2.29668
   41.45    392.96   2.19665   390.043   2.18815
   41.55   369.816   2.13088   369.896   2.13081
   41.65   359.526   2.38276    361.51   2.39424
   41.75   349.208   2.59464   347.461   2.58946
   41.85   344.717   2.58079   342.588   2.57077
   41.95   340.463   2.56285   347.837   2.59018
   42.05   338.981   2.55647   340.872   2.56339
   42.15   338.266    2.5542   336.992   2.54808
   42.25   336.952   2.54792   337.597   2.55287
   42.35   335.313   2.54288   335.659   2.54462
   42.45   337.619    2.5515   333.226   2.53553
   42.55   336.926    2.5483   334.628   2.54032
   42.65   332.019   2.52978   331.712   2.52957
   42.75   335.379   2.54192   330.136   2.52307
   42.85   335.724   2.54424   336.343    2.5463
   42.95   336.056   2.54486   337.697   2.55187
   43.05   331.433   2.52884   335.303   2.54441
   43.15   327.591   2.51273   332.141    2.5305
   43.25    329.59   2.52014   327.851   2.51332
   43.35   328.292   2.51544   322.579   2.49485
   43.45    323.85   2.49893   323.558   2.49713
   43.55   325.198   2.50293   324.318   2.50098
   43.65   322.064   2.49235   321.909   2.49257
   43.75   323.165   2.01444   320.825   2.00724
   43.85   322.533   2.01292   321.981   2.01136
   43.95   320.121   2.00558    318.92   2.00041
   44.05   319.698   2.00399   321.474   2.00933
   44.15   320.839   2.00756   317.553   1.99663
   44.25   321.633   2.00962   323.371   2.01502
   44.35   325.427   2.28201   317.757   2.25736
   44.45   322.356   2.50832   321.399   2.50345
   44.55   321.437   2.50329   318.288   2.49119
   44.65    320.71   2.50036   317.952   2.48917
   44.75   322.481   2.50694   320.853   2.50049
   44.85   320.534   2.49876   317.079   2.48455
   44.95   323.541   2.51132   322.347   2.50658
   45.05   320.017   2.49716   325.481   2.51963
   45.15   317.772   2.48693   321.211   2.50275
   45.25   325.762   2.51916   324.034   2.51295
   45.35   318.839   2.49246   321.699   2.50442
   45.45   324.529   2.51354   325.301   2.51733
   45.55   326.719   2.52295   326.859   2.52448
   45.65   323.709   2.51254   319.856    2.4972
   45.75   321.294   2.50203   324.022   2.51293
   45.85   329.556    2.5346   327.017    2.5254
   45.95    322.98   2.50756   328.137   2.52713
   46.05   326.726   2.52278   327.132   2.52538
   46.15   333.329   2.54776   326.869   2.52351
   46.25   327.519   2.52657   329.337   2.53449
   46.35   334.003   2.55113   331.218   2.53995
   46.45    335.67   2.07093   335.082   2.07006
   46.55   341.467   2.08865   339.042   2.08186
   46.65   355.931   2.13328   355.594   2.13018
   46.75   375.541   2.19128   372.869   2.18328
   46.85    405.16   2.27536   401.473   2.26489
   46.95   452.434   2.40446   449.596   2.39642
   47.05   505.894   3.04259   501.486   3.03097
   47.15    559.79   3.20262   567.665   3.22537
   47.25   604.347   3.32783   593.959   3.29906
   47.35   605.137   3.32981   602.453   3.32062
   47.45   574.942   3.24479    574.32   3.24304
   47.55   527.109   3.10645    526.37   3.10237
   47.65    480.85   2.96623   480.282   2.96679
   47.75   443.934   2.85171   439.047   2.83563
   47.85   422.069    2.7787   412.455   2.74933
   47.95   409.705   2.73837   410.153   2.74021
   48.05   413.178      2.75   411.542   2.74587
   48.15   415.006   2.75528   417.194   2.76342
   48.25    422.11   2.77921   415.323   2.75769
   48.35   418.566    2.7685   416.441   2.76201
   48.45   411.843   2.74617   414.811   2.75624
   48.55   401.382   2.71148   402.737   2.71642
   48.65   409.062   2.73542   400.605   2.70673
   48.75   412.634   2.74809   415.883   2.76038
   48.85    441.79   2.84328   443.259   2.84791
   48.95   476.484   2.95225   474.618   2.94811
   49.05   515.814   3.07457   508.716   3.05234
   49.15   540.757     2.547   546.379   2.56118
   49.25   554.268   2.57847   554.792   2.58062
   49.35   539.974   2.54609   536.751   2.53662
   49.45   506.313   2.46569   507.228   2.46716
   49.55   457.621   2.34342     463.8    2.3587
   49.65   420.309   2.24523   424.162   2.25558
   49.75    392.69   2.42124   388.629   2.41262
   49.85   371.158   2.58529   370.456    2.5831
   49.95   363.004   2.55687   360.637    2.5485
   50.05   358.051   2.53924   351.657   2.51511
   50.15    348.35   2.50391   351.282   2.51443
   50.25   351.336   2.51429   349.886   2.50752
   50.35   358.538   2.53925   357.387   2.53715
   50.45   367.099   2.57084   374.865    2.5976
   50.55   385.593   2.63303   388.363   2.64481
   50.65   408.856   2.71194   408.416   2.71081
   50.75   431.286   2.78539   439.405   2.81283
   50.85   451.079   2.84776   461.785   2.88227
   50.95   480.806   2.94056   484.385   2.95247
   51.05   489.194   2.96716   493.278   2.98011
   51.15   494.051   2.98184   497.618   2.99282
   51.25   491.503    2.9746   496.174   2.98911
   51.35    473.03   2.91616   481.493   2.94184
   51.45   442.233   2.82038   442.669   2.82327
   51.55   407.686   2.70776   414.538    2.7303
   51.65   377.378   2.60472   380.084   2.61543
   51.75   355.273   2.52968   357.252   2.53588
   51.85    347.02   2.05709   338.289   2.03181
   51.95    330.55   2.00754    331.84   2.01219
   52.05   325.755   1.99377   324.775   1.98931
   52.15    322.02    1.9825   323.317    1.9859
   52.25   319.744    1.9749   322.233   1.98216
   52.35    316.91   1.96558   317.719   1.96814
   52.45   315.638   2.18903   320.224   2.20645
   52.55   319.506   2.41008   316.295   2.39817
   52.65   318.034   2.40466   321.172   2.41647
   52.75   319.161   2.40878   319.112   2.40731
   52.85   323.076   2.42285    320.33   2.41252
   52.95   321.155   2.41532   314.416   2.38832
   53.05   325.994   2.43279   322.757   2.42257
   53.15   332.561   2.45856   329.704    2.4477
   53.25   332.764   2.45765   336.972   2.47533
   53.35   344.586   2.50153   344.923   2.50306
   53.45   361.904   2.56367    359.47   2.55626
   53.55    387.81   2.65306   384.264   2.64175
   53.65   418.895    2.7578   414.701   2.74486
   53.75   455.558   2.87694   442.878   2.83721
   53.85    481.43   2.95751   471.674   2.92762
   53.95   486.323   2.97297   488.274   2.97933
   54.05   479.541   2.95014   481.568   2.95608
   54.15   473.566   2.93248   469.022   2.91995
   54.25   454.316   2.87203   459.418     2.888
   54.35   443.433   2.83693   439.822   2.82687
   54.45   434.082   2.80949   436.921   2.81773
   54.55   430.228   2.29518   430.161   2.29587
   54.65   432.729   2.30168   431.329    2.2988
   54.75   433.452   2.30459   437.278   2.31303
   54.85   438.089   2.31709   437.948   2.31605
   54.95   434.896   2.30796   439.231   2.31895
   55.05   434.286    2.3057   434.015   2.30504
   55.15   431.046   2.59065   433.398   2.59823
   55.25   432.673   2.86006   436.387   2.87259
   55.35    433.25   2.86213   430.707   2.85368
   55.45   434.662   2.86664   436.392   2.87075
   55.55   420.514   2.81882   430.054   2.85061
   55.65    415.81   2.80263   431.346   2.85272
   55.75   421.461   2.82085   431.857   2.85766
   55.85   433.279   2.86175   437.018   2.87375
   55.95   443.226   2.89246   447.302    2.9083
   56.05   450.409   2.91651   450.633   2.91759
   56.15   445.214   2.89969   447.379   2.90813
   56.25   434.914   2.86512   436.835   2.87236
   56.35   420.624    2.8181   420.793   2.81961
   56.45   399.728    2.7482   404.098   2.76371
   56.55   392.431   2.72299   392.072   2.72194
   56.65   383.065   2.69071   380.824   2.68319
   56.75   376.065   2.66418   379.556   2.67625
   56.85   383.969   2.69274   380.172   2.68086
   56.95   383.417    2.6906   380.219   2.67926
   57.05   389.522   2.71143   392.065   2.72175
   57.15   385.515   2.70001   384.699   2.69628
   57.25   392.303   2.23412    387.75   2.22196
   57.35   385.329   2.21402   383.572   2.20977
   57.45   392.595   2.23575    387.26   2.21886
   57.55   397.798   2.25072   394.428   2.24052
   57.65   416.372   2.30201   415.634   2.29948
   57.75   448.482   2.38845   442.588   2.37276
   57.85   491.098   2.80354    482.63   2.78279
   57.95   535.152    3.2041   522.167   3.16529
   58.05   557.662   3.27098    549.61   3.24725
   58.15   552.835    3.2566   548.584   3.24231
   58.25   526.444   3.17706   518.468   3.15291
   58.35   491.145   3.06828   488.835   3.05917
   58.45   457.933   2.96194   451.913    2.9447
   58.55   430.795   2.87446   434.704   2.88714
   58.65   435.631   2.88859    426.62   2.86109
   58.75   434.904   2.88688   430.794   2.87356
   58.85   438.139   2.89765   439.461   2.90341
   58.95   444.971    2.9193   438.778   2.89985
   59.05    442.18   2.91059   437.817   2.89717
   59.15    425.57   2.85643   423.758   2.85089
   59.25   415.463    2.8223   409.891   2.80347
   59.35   397.161   2.75986   389.996   2.73521
   59.45   372.713   2.67173   371.529   2.66721
   59.55   362.793   2.63663   359.707   2.62679
   59.65   351.276   2.59423   346.287   2.57564
   59.75   342.128   2.55976   343.151   2.56498
   59.85   340.725   2.55693   339.566   2.55176
   59.95   333.515   2.05834   335.852   2.06632
   60.05    334.45   2.06109   336.612   2.06849
   60.15   335.178   2.06421   336.182   2.06578
   60.25   339.474   2.07759   339.065   2.07574
   60.35    344.45   2.09215   346.475   2.09785
   60.45   356.043   2.12648   354.587   2.12217
   60.55   365.551   2.41543   360.368   2.39809
   60.65   377.493   2.69281   376.509   2.68956
   60.75   375.997   2.68761   382.173   2.70956
   60.85   373.744   2.67939   375.283   2.68347
   60.95   362.678   2.63872   370.951   2.66865
   61.05   353.539   2.60491   353.078   2.60159
   61.15   351.951   2.59836   347.505   2.58391
   61.25   344.631   2.57266   345.263   2.57473
   61.35   345.851   2.57546   344.275   2.57186
   61.45   350.951   2.59501   354.107   2.60697
   61.55    355.13   2.61047   357.427   2.62014
   61.65   376.398   2.68671   372.706   2.67436
   61.75   395.666   2.75506   399.172   2.76816
   61.85   430.876   2.87602   434.307   2.88807
   61.95   487.142   3.05805   492.366   3.07471
   62.05   571.458   3.31265   574.293   3.32133
   62.15   643.348   3.51247   652.668   3.53746
   62.25   656.504   3.54914   666.886     3.579
   62.35   598.186   3.38754   604.217   3.40443
   62.45   521.836   3.16346   526.226   3.17841
   62.55   482.984   3.04627   481.055   3.03918
   62.65   485.477   2.45995   486.745    2.4641
   62.75   526.313   2.56117   526.312   2.56211
   62.85   590.359   2.71367   584.485   2.69813
   62.95   650.128   2.84799   639.412   2.82362
   63.05   682.439   2.91707   675.706   2.90203
   63.15   679.385   2.90971   673.169   2.89646
   63.25   654.665   3.16711   649.106   3.15639
   63.35   613.704   3.35508   605.534     3.333
   63.45   569.453   3.23203   559.677   3.20412
   63.55   540.305   3.14807   531.943    3.1219
   63.65   517.311   3.07951   519.765   3.08679
   63.75   534.273   3.12917   530.337   3.11565
   63.85   559.448   3.20118   564.412   3.21787
   63.95    601.78   3.32196   610.471   3.34551
   64.05   630.698   3.39857   632.542   3.40653
   64.15   656.262   3.46758   652.209   3.45728
   64.25   638.824   3.42126     644.5   3.43808
   64.35   621.736   3.37422    625.45   3.38536
   64.45   610.026   3.34282   608.085   3.33861
   64.55   609.505   3.34258   614.756   3.35762
   64.65   634.285   3.40984   630.796   3.40073
   64.75   665.412   3.49304   671.741    3.5101
   64.85   705.031   3.59308   695.951    3.5695
   64.95   714.494   3.61808   719.756   3.63333
   65.05   715.838   3.62117   709.039   3.60378
   65.15   684.145   3.53948   676.174   3.52069
   65.25   639.112   3.13039   632.084    3.1147
   65.35    596.43   2.69355   589.031   2.67835
   65.45   560.355   2.61117   564.198    2.6212
   65.55   534.073    2.5507   520.209   2.51538
   65.65   506.319   2.48312   503.804   2.47639
   65.75   479.186   2.41542   479.918    2.4169
   65.85   460.076   2.36666   461.151   2.36909
   65.95   442.163   2.57826   442.352   2.58334
   66.05   436.664   2.80201   434.084   2.79513
   66.15    432.45   2.79157   432.664   2.79004
   66.25   448.159   2.83964   449.238   2.84276
   66.35   465.917   2.89445    461.94   2.88178
   66.45   494.803   2.98334   492.655   2.97531
   66.55   526.117   3.07471   526.445   3.07868
   66.65   563.018   3.18211   570.444   3.20363
   66.75   608.603   3.30836   615.638   3.32826
   66.85   654.278   3.42944   656.883   3.43725
   66.95   702.427   3.55355   694.328   3.53436
   67.05   728.245   3.61734   729.747   3.62266
   67.15   759.397   3.69546   758.697   3.69328
   67.25    800.97   3.79423   800.583   3.79453
   67.35   850.385   3.91194   844.353   3.89936
   67.45   883.942   3.98609    877.06   3.97116
   67.55   896.906   4.01486   888.557   3.99587
   67.65   868.706   3.95169   865.954   3.94759
   67.75   812.593   3.82279   805.444    3.8049
   67.85   738.632   3.64287    733.85   3.63319
   67.95   665.277     3.176   661.725   3.16851
   68.05    609.95   2.71912    603.96   2.70646
   68.15   573.733   2.63831   572.821   2.63657
   68.25   551.525   2.58741   543.914   2.56755
   68.35   538.628   2.55596   535.899   2.54939
   68.45   530.779   2.53775   527.904   2.53023
   68.55   531.712   2.54004   525.203   2.52399
   68.65   527.783   2.83924   523.241   2.82765
   68.75   530.977   3.12729   525.272    3.1103
   68.85   532.154   3.13227   533.817   3.13496
   68.95   535.743   3.14048   529.956   3.12426
   69.05   537.291   3.14448   533.339   3.13247
   69.15   528.835   3.11982   524.643    3.1069
   69.25   520.979   3.09684   512.503   3.07208
   69.35   496.622   3.02274   499.336   3.03331
   69.45   485.271   2.98811   484.705    2.9874
   69.55   484.241   2.98494   479.183   2.97034
   69.65   480.292   2.97305   481.436   2.97728
   69.75   496.275    3.0209   490.689   3.00522
   69.85   507.514   3.05687   500.774   3.03633
   69.95   518.189   3.08851   524.642   3.10761
   70.05   532.058   3.13008   536.553   3.14446
   70.15   549.965    3.1808   544.794   3.16655
   70.25   550.765   3.18292    547.79   3.17395
   70.35   547.132   3.17281   548.656    3.1786
   70.45   547.451   3.17423   539.298   3.15045
   70.55   520.834   3.09654   511.991   3.07133
   70.65   498.753   2.78244   494.443   2.76839
   70.75   477.884   2.44908   475.527   2.44385
   70.85    469.98   2.42982   462.956   2.41178
   70.95   466.849   2.42229    463.54   2.41129
   71.05   492.871   2.48769   485.359   2.46907
   71.15   525.655    2.5695   526.357   2.57106
   71.25   602.158   2.75105   599.865    2.7447
   71.35   706.446   3.68326   707.119   3.68832
   71.45   843.396   4.02696   843.178   4.02624
   71.55   1000.14   4.38738   998.911   4.38149
   71.65   1143.57   4.68796   1136.69   4.67502
   71.75   1238.13   4.87707   1247.42   4.89469
   71.85   1288.82    4.9762   1286.08   4.97004
   71.95   1242.82   4.88703   1244.29   4.89077
   72.05   1158.25   4.71655   1162.54   4.72886
   72.15    1051.7   4.49453   1057.11   4.50763
   72.25   926.491   4.21852   937.324   4.24454
   72.35   822.224   3.97446   823.058   3.97743
   72.45   714.099   3.70243   719.567   3.71826
   72.55   622.132     3.458   622.242   3.45813
   72.65   541.357   3.22533   539.285   3.21917
   72.75   497.594   3.09274   500.158   3.10191
   72.85    472.43    3.0121   473.408   3.01595
   72.95   471.568   3.00918   475.514    3.0214
   73.05   491.313   3.07191   494.674   3.08371
   73.15   522.807   3.16934   519.445   3.15908
   73.25   525.505   3.17795   530.746   3.19501
   73.35   497.803   2.83521   494.463    2.8271
   73.45   449.551   2.41492   443.207   2.39862
   73.55   392.873   2.25856   391.993   2.25623
   73.65   358.038   2.15662   355.638   2.14723
   73.75   341.258   2.10449   339.968   2.10085
   73.85   328.168   2.06408   331.455   2.07423
   73.95   326.783   2.06034   325.772   2.05634
   74.05   325.062   2.54359   328.044   2.55762
   74.15   332.091   2.57265   325.582   2.54719
   74.25   329.517   2.56389   329.397   2.56164
   74.35   323.549   2.53867   326.364   2.55034
   74.45    323.18   2.53679   325.105     2.544
   74.55   321.646   2.53092    324.61   2.54215
   74.65   323.338    2.5378   319.068   2.52143
   74.75   319.255   2.52102   319.905   2.52552
   74.85    315.02   2.50434   314.004   2.50117
   74.95   313.926   2.49999   315.477   2.50702
   75.05   311.997   2.49255    307.66   2.47574
   75.15   310.316   2.48484   312.908   2.49633
   75.25   304.518   2.46309   304.044   2.46103
   75.35   302.934   2.45639   306.863   2.47221
   75.45   305.864   2.46865   303.306   2.45925
   75.55   306.308   2.46926   305.299   2.46578
   75.65   305.656   2.46649   306.779   2.47073
   75.75   303.562   2.45834    300.62   2.44747
   75.85   301.686   2.45111   301.894   2.45191
   75.95   303.221   2.45767   299.474   2.44341
   76.05    302.57   2.45393   299.515    2.4426
   76.15   300.741   1.96078   299.362   1.95653
   76.25   301.544   1.96388   300.599   1.96085
   76.35   300.782   1.96154   301.177     1.961
   76.45   300.608   1.96058   298.348   1.95337
   76.55   301.242   1.96258   298.951   1.95484
   76.65   304.277   1.97259   306.028   1.97779
   76.75   303.501   2.39386   305.785   2.40493
   76.85   305.112   2.40305   302.355   2.39107
   76.95   300.353   2.38285    298.68    2.3764
   77.05   302.311    2.3905   299.868   2.38043
   77.15   296.512   2.36718   296.087   2.36537
   77.25   301.884   2.38795   298.673   2.37454
   77.35   298.632   2.37587   303.032   2.39321
   77.45   300.435   2.38261   299.332    2.3794
   77.55   300.303   2.38066   298.637   2.37635
   77.65   299.738   2.37955   307.372   2.41011
   77.75   309.954   2.41996   307.037   2.40934
   77.85   310.345   2.42044   309.528   2.41804
   77.95   314.039   2.43573    314.57   2.43875
   78.05   315.411   2.44226   318.064   2.45217
   78.15   317.829    2.4505   318.624   2.45386
   78.25   320.684   2.46207   325.651   2.48163
   78.35   328.312   2.48957   328.441   2.48969
   78.45   335.586   2.51773   331.548   2.50355
   78.55   330.816   2.49938   336.556   2.52153
   78.65   341.633   2.54102   335.428   2.51875
   78.75   342.288   2.31307   340.227    2.3036
   78.85   339.925   2.04098   340.378   2.04366
   78.95   344.556   2.05512   347.369   2.06424
   79.05   353.362   2.08239   352.573   2.07792
   79.15   360.383   2.10244    361.68   2.10618
   79.25   375.574   2.14603   375.764   2.14663
   79.35    394.86   2.20098   395.641   2.20236
   79.45   424.297   2.73865   415.554   2.71187
   79.55   443.908   2.80142    433.79   2.77076
   79.65    477.64    2.9092   475.362   2.89995
   79.75   494.973   2.95925   495.932   2.96181
   79.85   511.091    3.0061     510.5   3.00409
   79.95   514.128   3.01553   517.169   3.02288
   80.05   510.962   3.00467   520.594   3.03585
   80.15   503.676   2.98457   504.257   2.98675
   80.25   484.244   2.92628   485.217   2.93002
   80.35   476.248   2.90137   469.919   2.88283
   80.45   458.537   2.84702   452.767   2.83012
   80.55   444.021   2.80085    440.85   2.79209
   80.65   434.628   2.77222   435.946   2.77611
   80.75   424.039   2.73756   421.304   2.72959
   80.85   409.498   2.69185   402.314   2.66902
   80.95   393.222   2.63634   389.392   2.62385
   81.05   380.914    2.5945    378.62    2.5865
   81.15    368.65    2.5527   374.518   2.57433
   81.25    355.83   2.50846   358.304   2.51648
   81.35     348.9   2.48272   354.818   2.50513
   81.45    352.77   2.28058   348.729   2.26601
   81.55   351.344   2.03147   350.527   2.02963
   81.65   350.753   2.03063   349.786   2.02809
   81.75   355.758    2.0456   355.265   2.04263
   81.85   353.416   2.03804   355.989   2.04538
   81.95   356.748   2.04801   360.967   2.05958
   82.05   358.836   2.05405   355.181    2.0432
   82.15   355.065   2.27905   354.955    2.2799
   82.25   356.456   2.50011   355.072   2.49513
   82.35   354.658   2.49499    363.75   2.52501
   82.45     357.6   2.50346   362.412   2.52088
   82.55    363.75   2.52446   360.537   2.51295
   82.65   363.619   2.52416   366.632   2.53417
   82.75   372.889   2.55638   368.366   2.54124
   82.85   368.802   2.54159   367.744   2.53991
   82.95   369.064   2.54261    366.55   2.53481
   83.05   371.938   2.55249   363.921    2.5257
   83.15   364.355   2.52659   364.528   2.52779
   83.25   357.641   2.50221    363.17   2.52262
   83.35   361.359   2.51679   356.358   2.49917
   83.45   355.701   2.49672   355.482   2.49592
   83.55   350.175   2.47766   356.441   2.50068
   83.65   355.901   2.49664   353.811    2.4899
   83.75   354.232   2.49064   357.564   2.50204
   83.85   362.519   2.51993   362.546   2.52109
   83.95   361.686   2.51742   358.923   2.50774
   84.05   362.461    2.5205   363.105   2.52369
   84.15   365.446   2.52966    363.06   2.52253
   84.25   363.684   2.04923   359.989   2.03905
   84.35   363.485   2.04918   364.416   2.05185
   84.45   365.399   2.05472   362.157   2.04367
   84.55   364.244   2.05104   361.747   2.04419
   84.65   364.176   2.05079   359.301   2.03675
   84.75    366.17   2.05655    357.93   2.03281
   84.85   355.586    2.4758   360.879   2.49631
   84.95   362.892   2.50408   367.476   2.51868
   85.05   371.482   2.53207   365.012   2.51011
   85.15   370.936   2.53012   370.997   2.52989
   85.25   376.653    2.5492   377.589   2.55227
   85.35   386.284   2.58097   385.588   2.57793
   85.45   402.271   2.63475   395.877   2.61363
   85.55   416.483   2.68041   418.929   2.68959
   85.65   440.278   2.75427   440.962   2.75909
   85.75   464.842    2.8314   457.804   2.81042
   85.85   480.247   2.87816   480.998   2.88136
   85.95   486.546   2.89575    491.02   2.90998
   86.05   489.297   2.90503   481.445   2.88275
   86.15   468.406   2.84374   465.153   2.83346
   86.25   441.749   2.76039   450.344   2.78745
   86.35   426.117   2.71176   420.603   2.69479
   86.45   393.751   2.60506    393.22   2.60291
   86.55   383.035   2.57007   377.405   2.55219
   86.65   367.769   2.51796   362.407   2.50007
   86.75   350.563   2.45944   353.333   2.47002
   86.85   344.166   2.43661   339.246   2.41862
   86.95   338.942   1.99803    334.19   1.98487
   87.05   331.202   1.97498   332.209   1.97859
   87.15   328.971   1.96911   326.676   1.96033
   87.25   324.341   1.95525   323.831   1.95352
   87.35   327.114   1.96296   326.867   1.96215
   87.45   328.728    1.9678   326.849   1.96179
   87.55   329.655    2.4178   327.593   2.41145
   87.65   327.729   2.41219   325.661    2.4048
   87.75   336.485   2.44434    329.48   2.41873
   87.85   336.547    2.4444   339.882   2.45519
   87.95   348.117   2.48541   341.033   2.45997
   88.05   346.056   2.47772   349.411   2.48812
   88.15   350.622   2.49333   352.359   2.50146
   88.25   352.563   2.50164   352.645   2.50166
   88.35   353.324   2.50263    352.34   2.50138
   88.45   349.277   2.48887   356.104   2.51339
   88.55    341.84   2.46228   346.288   2.47944
   88.65   341.147   2.45907   344.788   2.47295
   88.75   342.548    2.4645   340.914   2.45944
   88.85   334.966   2.43794   333.167   2.43187
   88.95   330.301   2.42091   333.277   2.43197
   89.05   329.799   2.41944   327.579    2.4116
   89.15   325.251   2.40105    330.91    2.4216
   89.25   328.846   2.41492   331.158   2.42472
   89.35   332.782   2.42913   334.175   2.43412
   89.45   337.785   2.44688   336.025   2.44184
   89.55   343.679   2.25615   338.357   2.23388
   89.65   342.815   2.01076   344.367   2.01647
   89.75   349.781   2.03134    344.58   2.01702
   89.85    352.22    2.0396   348.782   2.02801
   89.95    350.17    2.0333     351.8   2.03758
   90.05   353.893   2.04388   355.213   2.04738
   90.15   358.983   2.05843   358.306   2.05621
   90.25   360.178   2.32113   355.917   2.30851
   90.35   360.339   2.55483   363.866   2.56863
   90.45   364.473   2.57233   361.266   2.55896
   90.55   375.931   2.61044    367.26   2.57989
   90.65   375.064   2.60662   379.869   2.62304
   90.75   385.973   2.64471   379.982   2.62275
   90.85   385.846   2.64291   389.726   2.65877
   90.95   385.671   2.64351   391.079   2.66244
   91.05   387.434   2.64944   385.308   2.64288
   91.15   381.374   2.62804   381.896   2.63058
   91.25   377.217   2.61377   375.187   2.60773
   91.35   366.119   2.57435   364.951   2.57142
   91.45   354.326   2.53362   349.954   2.51766
   91.55   346.436   2.50463   347.129   2.50793
   91.65   339.226   2.47994     340.2   2.48434
   91.75   333.918   2.45907   332.877    2.4556
   91.85   327.934   2.43671   328.815   2.43982
   91.95   331.846   2.45147   323.964   2.42352
   92.05   322.956   2.41896    325.35   2.42724
   92.15   319.098   2.40332    318.54   2.40259
   92.25   317.467   2.18378   316.278   2.17958
   92.35   311.674    1.9238   312.122   1.92569
   92.45   313.511    1.9303   314.428   1.93337
   92.55   311.997   1.92613   310.122   1.91887
   92.65   312.639   1.92734   311.382    1.9234
   92.75   308.219   1.91403   312.282   1.92613
   92.85    316.22   1.93876   314.063   1.93179
   92.95   316.898   2.15877   316.789   2.15912
   93.05   327.737   2.39384   320.275   2.36631
   93.15   324.605   2.38352    333.43   2.41401
   93.25   336.374   2.42454   334.832   2.41959
   93.35   350.671    2.4751   346.997   2.46178
   93.45   363.117   2.51879   359.287    2.5051
   93.55   380.647   2.57913   372.883    2.5531
   93.65   398.795   2.63912   395.622   2.63065
   93.75   422.273   2.71582   411.483   2.68182
   93.85    437.26    2.7636   436.256   2.76139
   93.95   464.215   2.84778   462.057   2.84183
   94.05   481.167   2.89817   484.767   2.91032
   94.15   498.441   2.95163   494.974   2.94117
   94.25   514.002   2.99701   502.099   2.96204
   94.35   505.361    2.9722   505.237   2.97296
   94.45   499.637    2.9539   498.624   2.95163
   94.55   487.654    2.9181    484.05   2.90696
   94.65   472.006   2.87126   468.468   2.86174
   94.75   443.726   2.78435   442.313   2.77987
   94.85   421.265   2.71333   421.668    2.7157
   94.95   401.655   2.15233    400.66   2.15005
   95.05   386.836   2.11209   385.976   2.11051
   95.15   367.039   2.05819   370.972   2.06866
   95.25   360.833   2.04105   358.904   2.03427
   95.35   354.116   2.02108   350.317   2.01013
   95.45   345.811   1.99724   345.958   1.99726
   95.55   344.943   1.99512   348.394   2.00512
   95.65   344.871   2.43235   344.771    2.4328
   95.75   350.342   2.45151   350.834   2.45363
   95.85   350.023   2.45101   350.526   2.45159
   95.95   355.505   2.46932   355.211   2.46895
   96.05   361.324   2.48882   358.855   2.47911
   96.15   362.666    2.4931   361.083   2.48839
   96.25   359.905   2.48476    359.39   2.48281
   96.35   364.453   2.49831   363.303   2.49741
   96.45   366.896   2.50887   360.445   2.48565
   96.55   364.404    2.4985   359.831   2.48396
   96.65    362.29   2.49104   362.575   2.49418
   96.75   357.934   2.47695   361.172   2.48806
   96.85   359.593   2.48356   358.036   2.47789
   96.95   353.321   2.46099   356.678   2.47312
   97.05   358.432   2.47998   357.609   2.47749
   97.15   359.155   2.48012    362.92   2.49372
   97.25   365.119   2.50216   366.346    2.5061
   97.35   371.793   2.52407    377.74   2.54551
   97.45   382.261   2.55878   378.718   2.54771
   97.55   393.661   2.59872   393.116   2.59704
   97.65   406.566   2.41359   401.754   2.40001
   97.75    418.97   2.20166   416.161   2.19443
   97.85   432.795   2.23832   431.453   2.23458
   97.95   443.402   2.26565   435.839   2.24475
   98.05   459.291   2.30581   451.069   2.28458
   98.15   464.775   2.31933   463.468    2.3165
   98.25   465.512   2.32173   461.719   2.31215
   98.35    473.83   2.87144   474.704    2.8761
   98.45   477.889   2.88588   473.706   2.87253
   98.55   473.867   2.87414   473.605   2.87118
   98.65   463.154   2.83952   460.556   2.83153
   98.75   454.723   2.81342   455.036   2.81359
   98.85   442.852   2.77625   444.229   2.78144
   98.95   440.518   2.76946   432.823    2.7455
   99.05   428.767   2.73194   426.525   2.72597
   99.15   422.691    2.7109   417.233   2.69576
   99.25   415.981   2.69132   415.401   2.69039
   99.35   413.788   2.68394    407.16   2.66151
   99.45   413.994   2.68297   413.947   2.68497
   99.55   410.169   2.67224   405.848    2.6588
   99.65    409.82   2.67166   401.443   2.64388
   99.75   407.092   2.66226   406.744    2.6621
   99.85   404.363   2.65278   403.605   2.64997
   99.95   403.632   2.64929   400.278   2.63965
  100.05   398.924   2.63484   399.681   2.63697
  100.15   400.383   2.64016   400.983   2.64269
  100.25   402.043    2.6464   403.747   2.65205
  100.35   403.969   2.18018   403.162   2.17856
  100.45   402.164   2.17517   403.698   2.18066
  100.55   402.291   2.17678    400.26   2.17011
  100.65   398.051   2.16592   399.964   2.16978
  100.75   393.773   2.15267   390.649   2.14448
  100.85   395.082   2.15618   396.476   2.15948
  100.95   392.857   2.41904   395.405   2.42592
  101.05   392.702   2.66088   391.226   2.65674
  101.15   389.869   2.65119    387.76   2.64444
  101.25   390.698   2.65468   387.925   2.64397
  101.35   396.753    2.6743   394.543   2.66754
  101.45   400.333   2.68565   404.594   2.69862
  101.55   409.118   2.71457   408.394     2.713
  101.65   417.949   2.74503   419.781   2.75085
  101.75   422.445   2.75743   428.316   2.77993
  101.85   429.876   2.78402   429.618     2.782
  101.95   434.522   2.79697    438.72   2.81179
  102.05   446.903    2.8363   441.948   2.82298
  102.15   452.734   2.85581   449.707   2.84619
  102.25   453.614    2.8596   460.202   2.87998
  102.35   465.084   2.89459   465.074   2.89509
  102.45   470.527   2.91294   467.238   2.90316
  102.55   481.118   2.94274   479.437   2.93835
  102.65   483.927   2.95313   485.828   2.95863
  102.75   505.275   3.01653   495.911   2.99002
  102.85   509.996    3.0299     506.4   3.02018
  102.95   514.562   3.04586   515.512   3.04882
  103.05    519.94   2.79662   518.155    2.7941
  103.15   523.957   2.51574   510.983    2.4846
  103.25   516.704   2.49898   513.998   2.49214
  103.35   510.115   2.48308   494.851   2.44401
  103.45    496.28    2.4491   495.108   2.44567
  103.55   485.653   2.42252   482.559   2.41524
  103.65   474.221   2.39441   465.254   2.37156
  103.75   457.312   2.89126   459.533   2.90032
  103.85   443.861    2.8506   448.581     2.865
  103.95    435.91   2.82535    434.54   2.81878
  104.05   421.669    2.7769   421.776   2.77725
  104.15   409.819   2.73748   405.646   2.72277
  104.25   403.175     2.715   400.794   2.70782
  104.35   390.308   2.67184   387.563   2.66274
  104.45   377.726   2.62811   375.968   2.62313
  104.55   370.555   2.60149   369.611   2.60051
  104.65   366.082   2.58769    362.64   2.57639
  104.75    358.69   2.56116   359.087   2.56177
  104.85   353.975   2.54271   349.189    2.5275
  104.95   347.366   2.52046   347.783   2.52262
  105.05   349.126   2.52738   350.719   2.53282
  105.15   346.566   2.51763   347.002   2.52014
  105.25   346.109   2.51545   350.575   2.53131
  105.35   347.269   2.51862   348.785   2.52544
  105.45   350.022   2.52956   351.647   2.53509
  105.55   353.732   2.54345   357.554   2.55768
  105.65   364.972    2.5843   367.798   2.59431
  105.75   370.978   2.36971   372.422   2.37517
  105.85   382.714   2.14903   381.779   2.14764
  105.95   390.357    2.1717   390.193   2.17079
  106.05   399.496   2.19779   403.271   2.20601
  106.15   405.979   2.21384   414.137   2.23682
  106.25   419.033   2.24945   421.221    2.2551
  106.35   431.256   2.55489   429.891   2.54721
  106.45   436.205   2.80786   432.949   2.79999
  106.55    435.59   2.80774   434.534    2.8042
  106.65   436.245   2.81121   440.988   2.82447
  106.75    435.07   2.80533   440.178   2.82247
  106.85   424.436   2.77037   436.416   2.80882
  106.95   429.045   2.78554   426.352   2.77632
  107.05   420.097   2.75659   423.424   2.76795
  107.15   416.826   2.74507   418.841    2.7538
  107.25   411.071   2.72615   409.874   2.72313
  107.35   399.973   2.68911   404.518   2.70528
  107.45   393.851   2.66872   389.332   2.65399
  107.55   387.248   2.64519   384.381   2.63658
  107.65   380.904   2.62511    377.84   2.61439
  107.75   369.584   2.58552   372.543   2.59582
  107.85    375.39   2.60619    374.57   2.60432
  107.95   365.794   2.57143   367.109   2.57667
  108.05   366.185   2.57265   369.606   2.58434
  108.15   366.239   2.57316   364.303   2.56749
  108.25   360.695   2.55402   361.894   2.55821
  108.35   353.798   2.52985   357.747   2.54491
  108.45    357.65   2.33723   356.208   2.33365
  108.55   356.932   2.11188   355.682   2.10888
  108.65   357.363   2.11409   356.643   2.11213
  108.75   355.593   2.10935   354.837   2.10501
  108.85   354.432   2.10491   353.844    2.1035
  108.95   352.834    2.1005   354.421   2.10507
  109.05   348.268    2.0875    351.92   2.09759
  109.15   347.422   2.56619   357.429    2.6053
  109.25   345.808    2.5619   348.906   2.57322
  109.35   352.297   2.58707   348.938    2.5729
  109.45   348.358   2.57064   351.173   2.58167
  109.55   345.452   2.55947   349.815   2.57523
  109.65    343.71   2.55316    343.36    2.5514
  109.75   344.306   2.55561   343.627   2.55353
  109.85   342.543   2.54835   344.074     2.556
  109.95    342.11   2.54683    345.27   2.55945
  110.05   346.226   2.56211   346.486   2.56396
  110.15   342.787   2.54961   344.294    2.5558
  110.25   337.967   2.53061   347.245   2.56627
  110.35   339.348    2.5374   341.358   2.54475
  110.45   345.112   2.55856   348.591   2.57139
  110.55    348.81   2.57265     347.9   2.57028
  110.65   343.912   2.55332   350.923   2.57983
  110.75   347.624   2.56691   351.695    2.5816
  110.85   351.386   2.58107    352.21   2.58524
  110.95    351.86   2.58323   349.249   2.57358
  111.05   357.581   2.60454   352.139   2.58562
  111.15   363.283   2.42372   358.848   2.40955
  111.25   362.665   2.20218   363.173   2.20445
  111.35   365.021    2.2103   373.643   2.23642
  111.45   373.027   2.23494   371.833   2.22914
  111.55   380.512   2.25618   382.079   2.26118
  111.65   389.734   2.28372   385.868   2.27221
  111.75   396.769   2.30497   396.131   2.30219
  111.85   410.536    2.9665   412.046   2.97469
  111.95   419.936   3.00222   424.207    3.0173
  112.05   430.695    3.0419   434.744   3.05401
  112.15   440.156   3.07283   439.289    3.0706
  112.25    449.85   3.10596   443.321   3.08293
  112.35   459.748   3.14013   461.571   3.14584
  112.45    470.26   3.17613   474.239   3.19008
  112.55   477.107   3.19824   472.095   3.18388
  112.65    478.78   3.20399   479.691   3.20815
  112.75   478.008   3.20141   489.993   3.24243
  112.85   483.915   3.22145   489.702   3.24142
  112.95   487.733   3.23286   482.964   3.21848
  113.05   481.556   3.21438   482.552   3.21751
  113.15   482.067   3.21571    480.74   3.21122
  113.25   470.186   3.17635   476.925   3.20026
  113.35   473.622   3.18643   472.501   3.18343
  113.45   465.184   3.15773   469.387   3.17161
  113.55    458.91   3.13675   465.504   3.16056
  113.65   462.445   3.14931   464.101   3.15489
  113.75   463.489   3.15336    467.53   3.16826
  113.85    473.48   2.53594    478.88   2.55085
  113.95   485.987   2.56903   485.574   2.56889
  114.05   498.809    2.6038   497.451   2.59958
  114.15   522.644   2.66572    510.16     2.632
  114.25   533.896   2.69308   534.834   2.69534
  114.35   558.974   2.75561   553.206   2.74079
  114.45   582.485   2.81351   577.467   2.80142
  114.55   603.341   3.51279   606.467     3.523
  114.65   632.751   3.59727   632.493   3.59714
  114.75   656.307   3.66458   654.156   3.65679
  114.85   665.953   3.69018   666.222    3.6919
  114.95   667.598    3.6938   680.052   3.72633
  115.05   671.831     3.705   670.981   3.70375
  115.15   671.528   3.70592   670.046   3.70157
  115.25   665.637   3.68651   665.119   3.68959
  115.35   650.934   3.64876    654.61   3.65749
  115.45   637.993   3.60967    635.21   3.60351
  115.55   618.248   3.55309    618.07   3.55565
  115.65   597.112   3.49314   597.367   3.49379
  115.75    582.73   3.45204    581.04   3.44662
  115.85    575.88   3.43053   568.146   3.40807
  115.95   558.671   3.38061   552.396   3.36209
  116.05   535.145   3.30551   537.627   3.31402
  116.15    532.25   3.29859   533.143   3.30102
  116.25   525.326   3.27594   523.733   3.27269
  116.35   525.089   3.27446   526.449   3.27975
  116.45   528.195   3.28675   520.285   3.26219
  116.55   534.322   3.00139   526.942    2.9787
  116.65   534.196   2.66659   536.486   2.67253
  116.75   543.898   2.69148   546.204   2.69685
  116.85   559.808   2.73064   555.813   2.71906
  116.95   570.853   2.75736   563.095   2.73793
  117.05   582.665   2.78548   582.048   2.78453
  117.15   600.433   2.82833   594.612   2.81447
  117.25   615.968   3.40569   617.003   3.41094
  117.35     637.8    3.4681   634.679   3.45881
  117.45   654.975   3.51503   650.482    3.5003
  117.55   672.843   3.56022    680.53   3.58045
  117.65   702.447   3.63752   687.586   3.59781
  117.75   706.352   3.64734   712.001   3.66306
  117.85   732.508   3.71497   726.129   3.69921
  117.95   742.129   3.73884   744.699   3.74694
  118.05    749.32   3.75468   749.457   3.75839
  118.15    759.66   3.78334   756.777   3.77747
  118.25   759.969    3.7837   755.126   3.77045
  118.35   763.933   3.79125   760.756    3.7864
  118.45   763.621   3.79287   763.409   3.79332
  118.55   761.501   3.78842   763.299    3.7924
  118.65   749.065   3.75666   752.595   3.76688
  118.75   749.541   3.75706    740.12   3.73294
  118.85   733.237   3.71446   737.389    3.7269
  118.95   750.955   3.76052   739.861   3.73215
  119.05   743.539   3.74267    736.31    3.7252
  119.15   741.878   3.73957   739.971    3.7348
  119.25   746.695    3.4242   737.704   3.40164
  119.35   747.635   3.06789   746.723   3.06779
  119.45   752.881   3.08051   751.992   3.07806
  119.55   762.795   3.10187   757.197   3.08747
  119.65   759.369   3.09252    762.51   3.10007
  119.75   771.541   3.11762   767.838   3.10983
  119.85   781.106   3.52494   769.216   3.49165
  119.95   769.726   3.83224   771.878   3.84114
  120.05   776.038   3.85042   768.859   3.83239
  120.15   773.462   3.84588   765.922   3.82441
  120.25   757.757   3.80379   756.427   3.80143
  120.35   752.655   3.79033   750.946   3.78552
  120.45   737.531   3.75228   741.263   3.76112
  120.55   724.623   3.71964   720.823   3.71051
  120.65   708.835   3.67786   705.361   3.67167
  120.75   693.568   3.63819    696.38   3.64682
  120.85   687.503   3.62225   673.351   3.58602
  120.95    673.44   3.58537   669.709   3.57627
  121.05   657.223   3.54053   652.532   3.52947
  121.15   656.439   3.54067    638.76   3.49248
  121.25   633.054   3.47664   637.687   3.48927
  121.35   625.411   3.45616   625.775   3.45848
  121.45    607.11   3.40359   611.143    3.4157
  121.55   600.057   3.38357   591.145   3.35796
  121.65   581.617   3.33158   585.262   3.34349
  121.75   580.695   3.32947    572.18   3.30491
  121.85   558.879    3.2668   557.976   3.26542
  121.95   514.803   2.61551   514.279   2.61467
  122.05   501.697   2.58182   503.823   2.58824
  122.15   490.213   2.55316   489.101   2.54962
  122.25    478.23   2.52218   479.833   2.52477
  122.35     465.0   2.48596   466.533   2.48996
  122.45   458.172   2.46764   456.988   2.46395
  122.55   451.104   2.44901   451.134   2.44914
  122.65   433.512   2.97331   431.081   2.96593
  122.75   424.657    2.9427   425.269   2.94532
  122.85   419.577   2.92582    424.53   2.94161
  122.95    409.84   2.89072   411.256   2.89646
  123.05   419.778    2.9248   405.819   2.87439
  123.15   412.473   2.89885   408.666   2.88631
  123.25   406.234    2.8782   410.953   2.89469
  123.35   411.618   2.89478   406.851   2.88148
  123.45   405.652   2.87625   405.143   2.87321
  123.55    405.75   2.87448   399.982   2.85534
  123.65   405.155   2.87214   405.243   2.87493
  123.75   409.616     2.889   402.159    2.8625
  123.85   407.456   2.88238   404.962   2.87323
  123.95   402.053   2.86226   408.156   2.88444
  124.05   407.459    2.8829   401.321   2.86154
  124.15   403.669   2.86672   405.059    2.8724
  124.25    407.57   2.88232   407.206   2.88075
  124.35    401.77   2.86075   401.686   2.86197
  124.45   391.714   2.82409   399.787   2.85395
  124.55   397.743   2.84801   403.349   2.86814
  124.65   394.277   2.83418   393.664    2.8338
  124.75    393.22   2.83068   388.152   2.81233
  124.85   387.655   2.81153    382.56   2.79174
  124.95    387.73   2.81111   379.792   2.78029
  125.05   378.933   2.77952   384.137    2.7967
  125.15   372.153   2.75382   382.575   2.79259
  125.25   374.957   2.76452   378.221   2.77728
  125.35   341.684   3.87005    332.47   3.82024
  125.45   334.683   3.83479   336.758   3.84371
  125.55   338.017   3.85106   346.445   3.89608
  125.65   337.773   3.84753   333.141   3.81913
  125.75   329.599   3.80057   333.431    3.8192
  125.85   335.788   3.83414   330.905   3.80905
  125.95   334.504   3.83023   327.159   3.78427
  126.05   332.801    3.8195   329.367   3.79815
  126.15    329.53   3.79548   332.318   3.81471
  126.25   327.643   3.78683   332.765    3.8201
  126.35   338.236   3.84881     328.5   3.79142
  126.45   334.634    3.8267   333.089   3.81903
  126.55   341.054   3.86341   338.781   3.85452
  126.65   343.831   3.88293   328.488   3.79584
  126.75   340.297   3.86053   343.899   3.88172
  126.85   346.531   3.89607   347.577   3.90068
  126.95   346.814   3.89556   346.404   3.89662
  127.05   355.234   3.94267   345.117    3.8841
  127.15   363.221   3.98663   359.558   3.96823
  127.25   362.346   3.98785   356.645   3.95371
  127.35   373.452   4.04305   368.834   4.01691
  127.45    375.27   4.05206   375.135   4.05415
  127.55   374.909   4.05147   377.245   4.06274
  127.65   382.772   4.09646    383.13   4.09443
  127.75   390.711   4.13688   390.525     4.137
  127.85   401.603   4.19156    394.04   4.15493

loop_
_exclude_id
_exclude_2theta_min
_exclude_2theta_max
  1     5.0    16.0
  2    61.5    63.0
  3    72.8    74.0
  4   113.0   117.0
  5   125.1   160.0

loop_
_pd_proc_2theta
_pd_proc_intensity_plus_net
_pd_proc_intensity_minus_net
_pd_proc_intensity_bkg_calc
_pd_proc_intensity_plus
_pd_proc_intensity_plus_sigma
_pd_proc_intensity_minus
_pd_proc_intensity_minus_sigma
_pd_proc_excluded
   16.23823      2.37      2.37   610.96   309.958   2.23623    312.74   2.25   False
   16.33823      2.38      2.38   610.90   310.687    2.2394    313.74   2.25   False
   16.43823      2.39      2.39   610.84   310.367    2.2368    310.16   2.24   False
   16.53823      2.40      2.40   610.78   307.974   2.22878    309.82   2.24   False
   16.63823      2.41      2.41   610.72   306.999   2.22492    310.01   2.24   False
   16.73823      2.42      2.42   610.66   312.125    2.2444    305.66   2.22   False
   16.83823      2.43      2.43   610.60   309.807   2.23578    306.23   2.22   False
   16.93823      2.44      2.44   610.54     312.3   2.05063    309.39   2.04   False
   17.03823      2.45      2.46   610.48   308.606   1.82082    310.06   1.83   False
   17.13823      2.46      2.47   610.42   305.217   1.81155    308.55   1.82   False
   17.23823      2.48      2.49   610.36   306.467   1.81542    306.72   1.82   False
   17.33823      2.49      2.50   610.30   307.755   1.81859    304.18   1.81   False
   17.43823      2.51      2.52   610.24   311.371   1.82954    307.42   1.82   False
   17.53823      2.53      2.54   610.18   305.437   2.22544    308.88   2.24   False
   17.63823      2.55      2.56   610.12   310.243    2.2422    308.63   2.24   False
   17.73823      2.57      2.59   610.06    308.09   2.23607    303.39   2.22   False
   17.83823      2.60      2.62   610.00   306.728   2.23147    306.89   2.23   False
   17.93823      2.63      2.65   609.94   310.457   2.24345    307.62   2.23   False
   18.03823      2.66      2.69   609.89   311.174   2.24594    311.43   2.25   False
   18.13823      2.71      2.74   609.83   309.718   2.24051    309.70   2.24   False
   18.23823      2.76      2.79   609.77   307.144   2.23161    308.40   2.24   False
   18.33823      2.81      2.86   609.71   305.888   2.22678    309.11   2.24   False
   18.43823      2.89      2.94   609.65   306.334   2.22707    308.07   2.24   False
   18.53823      2.97      3.03   609.59   310.135   2.24253    309.44   2.24   False
   18.63823      3.08      3.15   609.53   306.909    2.2306    309.83   2.24   False
   18.73823      3.21      3.30   609.47   307.096    2.2299    307.59   2.23   False
   18.83823      3.39      3.51   609.41   308.222   2.23543    306.87   2.23   False
   18.93823      3.66      3.82   609.35   307.897   2.23472    306.26   2.23   False
   19.03823      4.09      4.30   609.29   308.043   2.23484    309.00   2.24   False
   19.13823      4.76      5.07   609.23   309.485   2.23959    306.54   2.23   False
   19.23823      5.75      6.20   609.17   310.967   2.24404    309.30   2.24   False
   19.33823      7.07      7.70   609.11   308.617   2.23641    308.09   2.23   False
   19.43823      8.66      9.50   609.05   309.159   2.23881    310.81   2.25   False
   19.53823     10.43     11.53   608.99    311.48   2.24785    315.51   2.26   False
   19.63823     12.54     13.94   608.93   314.551   2.07591    313.27   2.07   False
   19.73823     15.51     17.33   608.87   317.382   1.88252    319.53   1.89   False
   19.83823     20.14     22.61   608.81   317.568   1.88422    323.47   1.90   False
   19.93823     26.88     30.29   608.75   324.391   1.90506    325.88   1.91   False
   20.03823     34.97     39.52   608.70   328.819   1.91654    332.82   1.93   False
   20.13823     42.17     47.74   608.64   332.148   1.92647    334.31   1.93   False
   20.23823     45.73     51.80   608.48   328.985   2.15427    334.03   2.17   False
   20.33823     44.11     49.96   608.23   329.452   2.36685    330.39   2.37   False
   20.43823     37.92     42.89   607.97   322.962   2.34499    323.37   2.35   False
   20.53823     29.30     33.04   607.72   317.493   2.32616    322.53   2.34   False
   20.63823     20.67     23.19   607.46   317.055   2.32283    311.53   2.30   False
   20.73823     13.70     15.23   607.21   313.529   2.30948    308.80   2.29   False
   20.83823      8.94      9.79   606.96    307.85   2.28861    309.78   2.30   False
   20.93823      6.11      6.55   606.70   306.358   2.28326    311.02   2.30   False
   21.03823      4.60      4.83   606.45   312.868   2.30675    310.35   2.30   False
   21.13823      3.87      3.99   606.20   310.717    2.2989    309.09   2.29   False
   21.23823      3.53      3.59   605.94   309.987    2.2962    312.81   2.31   False
   21.33823      3.38      3.42   605.69   310.336   2.29772    311.96   2.30   False
   21.43823      3.32      3.35   605.43   309.888   2.29515    313.25   2.31   False
   21.53823      3.30      3.33   605.18   306.895   2.28549    310.16   2.30   False
   21.63823      3.31      3.32   604.93   306.927   2.28535    314.59   2.31   False
   21.73823      3.32      3.33   604.67   311.814   2.30386    306.41   2.28   False
   21.83823      3.33      3.34   604.42   302.909   2.26964    301.42   2.26   False
   21.93823      3.34      3.35   604.16   307.534   2.28677    310.12   2.30   False
   22.03823      3.36      3.37   603.91   309.856   2.29567    310.31   2.30   False
   22.13823      3.38      3.38   603.66   308.372   2.29053    308.48   2.29   False
   22.23823      3.40      3.40   603.40   309.517   2.29512    309.94   2.30   False
   22.33823      3.42      3.42   603.15   309.425   1.88425    309.33   1.88   False
   22.43823      3.45      3.44   602.90   309.908   1.88562    311.98   1.89   False
   22.53823      3.48      3.47   602.64    312.13   1.89316    313.07   1.90   False
   22.63823      3.51      3.50   602.39   312.587   1.89485    309.55   1.88   False
   22.73823      3.55      3.53   602.13   312.703   1.89437    314.13   1.90   False
   22.83823      3.59      3.57   601.88   312.924   1.89505    314.58   1.90   False
   22.93823      3.63      3.61   601.63   313.745    1.8979    309.14   1.88   False
   23.03823      3.68      3.65   601.37   310.826   2.35515    313.17   2.36   False
   23.13823      3.73      3.70   601.12   312.548   2.36157    311.48   2.36   False
   23.23823      3.79      3.75   600.87   308.902    2.3484    313.58   2.36   False
   23.33823      3.85      3.80   600.61   308.286   2.34528    306.59   2.34   False
   23.43823      3.91      3.86   600.36   310.626   2.35356    307.30   2.34   False
   23.53823      3.98      3.93   600.10   305.778    2.3348    303.41   2.33   False
   23.63823      4.06      4.00   599.85   304.267   2.33013    305.60   2.34   False
   23.73823      4.15      4.08   599.60   305.235   2.33187    301.21   2.32   False
   23.83823      4.25      4.16   599.34     304.2   2.32996    309.22   2.35   False
   23.93823      4.37      4.26   599.09   305.608   2.33364    305.17   2.33   False
   24.03823      4.51      4.38   598.84   301.069   2.31605    306.78   2.34   False
   24.13823      4.70      4.52   598.58   310.032   2.35116    305.86   2.34   False
   24.23823      4.92      4.68   598.33   307.364   2.34186    309.61   2.35   False
   24.33823      5.19      4.87   598.07   304.309   2.32942    305.58   2.33   False
   24.43823      5.50      5.08   597.82   309.253   2.34944    309.22   2.35   False
   24.53823      5.90      5.35   597.57   310.873   2.35334    311.23   2.36   False
   24.63823      6.40      5.67   597.31   307.883   2.34343    309.77   2.35   False
   24.73823      7.01      6.06   597.06   311.025   2.35456    311.85   2.36   False
   24.83823      7.64      6.46   596.81   311.344   2.35522    309.05   2.35   False
   24.93823      8.14      6.82   596.55   314.575   2.36931    314.58   2.37   False
   25.03823      8.38      7.04   596.30   313.159   1.94452    314.44   1.95   False
   25.13823      8.35      7.15   596.04   314.341   1.94807    314.52   1.95   False
   25.23823      8.17      7.20   595.79   314.687   1.94966    315.20   1.95   False
   25.33823      8.00      7.28   595.54   314.589   1.94928    316.87   1.96   False
   25.43823      7.99      7.47   595.28   313.395   1.94558    312.14   1.94   False
   25.53823      8.20      7.82   595.03   312.418   1.94206    309.23   1.93   False
   25.63823      8.66      8.34   594.77   310.157   1.93527    314.59   1.95   False
   25.73823      9.37      9.07   594.52   315.103   2.39402    315.55   2.40   False
   25.83823     10.41     10.10   594.27   314.975   2.39367    313.79   2.39   False
   25.93823     12.00     11.62   594.01   318.155   2.40558    320.61   2.41   False
   26.03823     14.51     14.02   593.76   320.421   2.41348    313.91   2.39   False
   26.13823     18.52     17.86   593.51   320.392   2.41306    320.66   2.41   False
   26.23823     24.67     23.72   593.25   324.905   2.42934    321.74   2.42   False
   26.33823     33.43     32.07   593.00   326.728   2.43752    326.69   2.44   False
   26.43823     45.11     43.20   592.74   335.565   2.46859    336.47   2.47   False
   26.53823     60.28     57.66   592.49   351.319    2.5265    347.55   2.51   False
   26.63823     80.24     76.68   592.24   371.663   2.59866    370.25   2.59   False
   26.73823    106.55    101.75   591.98   399.592   2.69374    401.43   2.70   False
   26.83823    138.41    132.11   591.73   435.996   2.81423    430.78   2.80   False
   26.93823    169.45    161.68   591.48   465.315   2.90833    465.00   2.91   False
   27.03823    188.16    179.52   591.22   485.927   2.97204    478.47   2.95   False
   27.13823    185.48    176.97   590.97   485.624   2.97158    470.77   2.93   False
   27.23823    161.91    154.53   590.71   464.729   2.90495    453.71   2.87   False
   27.33823    126.23    120.55   590.46   428.493   2.79014    424.80   2.78   False
   27.43823     89.39     85.48   590.21   388.989   2.65821    386.83   2.65   False
   27.53823     59.34     56.87   589.95   363.304    2.5685    363.11   2.57   False
   27.63823     38.92     37.44   589.70   351.667   2.52939    349.26   2.52   False
   27.73823     27.08     26.18   589.45   346.334   2.28482    342.88   2.27   False
   27.83823     21.20     20.60   589.19   341.692   2.01931    342.73   2.02   False
   27.93823     18.87     18.41   588.94   338.991   2.01222    336.21   2.00   False
   28.03823     18.52     18.11   588.68   335.519   2.00222    335.41   2.00   False
   28.13823     19.33     18.91   588.43   335.408   2.00123    333.59   2.00   False
   28.23823     20.98     20.54   588.18   333.704    1.9959    336.39   2.00   False
   28.33823     23.60     23.09   587.92   341.383   2.26215    340.75   2.26   False
   28.43823     27.73     27.11   587.67   346.705   2.50134    344.88   2.50   False
   28.53823     34.51     33.70   587.42   355.867    2.5361    349.66   2.51   False
   28.63823     45.62     44.49   587.16   359.783   2.55037    354.58   2.53   False
   28.73823     62.96     61.33   586.91   370.162   2.58514    366.34   2.57   False
   28.83823     88.18     85.81   586.65   391.284   2.65774    390.83   2.66   False
   28.93823    122.64    119.25   586.40   418.734   2.74918    418.83   2.75   False
   29.03823    168.28    163.54   586.15   471.791   2.91869    463.97   2.89   False
   29.13823    227.92    221.40   585.89   547.028   3.14244    541.20   3.13   False
   29.23823    301.93    293.22   585.64   627.318   3.36321    620.22   3.35   False
   29.33823    380.67    369.62   585.38   714.605   3.59225    693.75   3.54   False
   29.43823    439.58    426.79   585.13   744.548   3.66635    728.87   3.63   False
   29.53823    451.16    438.05   584.88    731.48   3.63175    710.93   3.58   False
   29.63823    407.92    396.16   584.62   658.247   3.44736    645.07   3.41   False
   29.73823    327.04    317.76   584.37   555.815   3.16854    550.16   3.15   False
   29.83823    235.88    229.40   584.12   475.079    2.9288    473.29   2.92   False
   29.93823    157.07    153.02   583.86   415.392   2.73812    416.54   2.74   False
   30.03823    101.11     98.83   583.61   378.057   2.61108    379.06   2.62   False
   30.13823     67.45     66.30   583.35   363.011   2.55959    358.35   2.54   False
   30.23823     50.17     49.67   583.17   355.842   2.53469    354.02   2.53   False
   30.33823     43.06     42.94   583.06   347.377   2.50509    351.89   2.52   False
   30.43823     41.99     42.13   582.94   349.617   2.03255    354.01   2.05   False
   30.53823     45.21     45.59   582.83   351.711    2.0385    354.86   2.05   False
   30.63823     52.96     53.64   582.72   357.972   2.05775    355.69   2.05   False
   30.73823     67.11     68.24   582.60    365.44   2.07972    363.77   2.07   False
   30.83823     90.52     92.35   582.49   376.443   2.10926    376.55   2.11   False
   30.93823    126.14    129.04   582.38   396.734    2.1653    397.77   2.17   False
   31.03823    176.63    181.00   582.26   443.859   2.54828    442.13   2.54   False
   31.13823    244.70    251.07   582.15   501.214    2.9446    504.84   2.96   False
   31.23823    333.15    342.10   582.03   588.606     3.191    598.72   3.22   False
   31.33823    440.31    452.38   581.92    698.39    3.4766    715.00   3.52   False
   31.43823    549.70    564.93   581.81   803.235   3.72724    827.16   3.78   False
   31.53823    624.52    641.87   581.69   875.939    3.8913    893.10   3.93   False
   31.63823    628.26    645.59   581.58   885.922   3.91289    903.61   3.95   False
   31.73823    557.84    572.89   581.47   826.727   3.78164    840.78   3.81   False
   31.83823    443.76    455.17   581.35   724.536   3.53727    734.11   3.56   False
   31.93823    326.19    333.70   581.24   625.674   3.29002    630.69   3.30   False
   32.03823    235.90    240.06   581.12    544.85   3.06789    553.33   3.09   False
   32.13823    187.31    188.89   581.01   512.172   2.97423    513.44   2.98   False
   32.23823    181.82    181.42   580.90   508.088   2.96343    502.04   2.95   False
   32.33823    215.15    212.98   580.78   528.321   3.02293    521.50   3.00   False
   32.43823    283.04    279.01   580.67   581.262   3.16977    579.40   3.17   False
   32.53823    383.70    377.47   580.56   672.571   3.41134    665.82   3.39   False
   32.63823    515.33    506.45   580.44   796.064   3.70784    783.55   3.68   False
   32.73823    665.63    653.81   580.33   926.665   4.00292    916.29   3.98   False
   32.83823    796.75    782.40   580.22   1028.65   4.21598   1019.14   4.20   False
   32.93823    850.95    835.55   580.10   1059.17   4.27708   1039.93   4.24   False
   33.03823    796.13    781.77   579.99   1016.38    4.1931    985.28   4.13   False
   33.13823    655.31    643.66   579.87   877.764   3.58618    864.34   3.56   False
   33.23823    481.41    473.11   579.76   719.682   2.90831    714.69   2.90   False
   33.33823    322.71    317.51   579.65   584.762   2.62239    580.50   2.61   False
   33.43823    205.36    202.51   579.53   490.526   2.40191    490.67   2.40   False
   33.53823    132.78    131.53   579.42   436.396   2.26544    433.46   2.26   False
   33.63823     95.88     95.71   579.31   401.467    2.1727    401.36   2.17   False
   33.73823     83.75     84.46   579.19   387.869   2.13609    386.83   2.13   False
   33.83823     88.81     90.44   579.08   393.818   2.64373    395.49   2.65   False
   33.93823    107.19    109.98   578.96   408.977   2.69613    409.04   2.70   False
   34.03823    137.41    141.70   578.85   443.847   2.80916    444.31   2.81   False
   34.13823    178.61    184.78   578.74   487.032   2.94066    498.96   2.98   False
   34.23823    227.36    235.68   578.62   547.735   3.11838    566.85   3.17   False
   34.33823    272.61    282.93   578.51   613.176   3.29917    627.45   3.34   False
   34.43823    295.11    306.45   578.40   645.507   3.38566    661.53   3.43   False
   34.53823    281.19    292.01   578.28   632.575   3.35118    643.75   3.38   False
   34.63823    236.30    245.28   578.17   573.557   3.18909    582.80   3.22   False
   34.73823    178.02    184.60   578.06   495.206   2.96552    506.08   3.00   False
   34.83823    123.20    127.51   577.94   433.829   2.77537    435.85   2.78   False
   34.93823     81.40     83.98   577.83   384.795   2.61222    387.41   2.62   False
   35.03823     54.27     55.72   577.71   358.759    2.5239    362.51   2.54   False
   35.13823     38.66     39.47   577.60   345.381   2.47694    347.74   2.49   False
   35.23823     30.35     30.82   577.49   341.274   2.46172    338.36   2.45   False
   35.33823     26.06     26.35   577.37    336.09   2.44243    334.36   2.44   False
   35.43823     23.83     24.01   577.26   327.284   2.40924    329.24   2.42   False
   35.53823     22.65     22.76   577.15   328.147   2.41337    326.81   2.41   False
   35.63823     22.05     22.11   577.03   322.468   2.39286    325.71   2.41   False
   35.73823     21.84     21.85   576.92   327.754   2.41309    327.16   2.41   False
   35.83823     21.96     21.92   576.80   326.356   1.94864    324.26   1.94   False
   35.93823     22.42     22.32   576.69   323.683   1.94052    323.50   1.94   False
   36.03823     23.35     23.18   576.58   322.544   1.93822    327.52   1.95   False
   36.13823     25.02     24.75   576.46   326.313   1.95009    327.62   1.95   False
   36.23823     28.01     27.58   576.35    329.28    1.9575    329.03   1.96   False
   36.33823     33.20     32.52   576.24   330.797   1.96195    331.87   1.96   False
   36.43823     41.74     40.65   576.12   336.918   2.22109    334.77   2.21   False
   36.53823     54.78     53.05   576.01   342.242   2.45741    342.05   2.46   False
   36.63823     73.15     70.54   575.90   352.708   2.49465    350.68   2.49   False
   36.73823     96.96     93.21   575.78   372.919   2.56576    372.91   2.56   False
   36.83823    124.35    119.30   575.67   393.914   2.63613    384.13   2.60   False
   36.93823    149.25    143.04   575.55   408.914   2.68517    404.40   2.67   False
   37.03823    161.45    154.75   575.44   423.329   2.73172    411.20   2.69   False
   37.13823    154.71    148.53   575.33   426.336   2.74269    415.88   2.71   False
   37.23823    133.87    129.00   575.21   402.478   2.66261    401.84   2.66   False
   37.33823    109.34    106.14   575.10   389.953   2.62317    385.61   2.61   False
   37.43823     89.88     88.32   574.99   367.847   2.54585    366.05   2.54   False
   37.53823     79.92     79.78   574.87   356.375   2.50565    361.38   2.53   False
   37.63823     79.60     80.66   574.76   356.408   2.50668    351.14   2.49   False
   37.73823     86.01     88.05   574.65   357.634   2.51189    356.30   2.51   False
   37.83823     93.92     96.66   574.53   358.897    2.5155    364.60   2.54   False
   37.93823     97.36    100.33   574.42   355.092   2.50338    367.36   2.55   False
   38.03823     93.84     96.51   574.30   360.035   2.51834    359.78   2.52   False
   38.13823     85.99     88.01   574.19   356.144   2.50625    355.47   2.50   False
   38.23823     78.13     79.43   574.08   348.497   2.47835    357.74   2.51   False
   38.33823     73.55     74.21   573.96   353.006   2.49376    352.92   2.49   False
   38.43823     73.93     74.11   573.85    357.15   2.51035    354.57   2.50   False
   38.53823     80.05     79.88   573.74   369.623   2.08507    362.92   2.07   False
   38.63823     93.31     92.85   573.62    381.73   2.11883    379.13   2.11   False
   38.73823    117.52    116.73   573.51   400.603   2.17114    396.54   2.16   False
   38.83823    160.26    158.97   573.39   436.935   2.26736    433.79   2.26   False
   38.93823    232.87    230.78   573.28   496.839   2.41783    487.65   2.39   False
   39.03823    348.24    344.88   573.17   590.818   2.63592    592.62   2.64   False
   39.13823    516.53    511.31   573.05   764.429   2.99861    763.50   3.00   False
   39.23823    738.94    731.25   572.94   1005.18    4.1714    987.16   4.13   False
   39.33823    995.95    985.43   572.83   1297.47   4.73957   1296.94   4.74   False
   39.43823   1227.04   1214.00   572.71   1562.61   5.20086   1546.82   5.17   False
   39.53823   1329.98   1315.90   572.60   1697.42   5.41919   1662.25   5.36   False
   39.63823   1242.75   1229.80   572.49   1596.73   5.25529   1584.66   5.23   False
   39.73823   1016.52   1006.32   572.37    1339.4   4.81196   1340.05   4.82   False
   39.83823    751.61    744.67   572.26   1042.92   4.24856   1034.25   4.23   False
   39.93823    524.36    520.37   572.14   794.093   3.70465    791.03   3.70   False
   40.03823    370.84    369.21   572.03   642.498   3.33317    649.86   3.35   False
   40.13823    296.34    296.58   571.92   579.992   3.16695    590.16   3.20   False
   40.23823    293.33    295.34   572.07   579.054   3.16347    571.64   3.14   False
   40.33823    355.63    359.74   572.49   621.118    3.2769    632.15   3.31   False
   40.43823    481.79    488.66   572.92    726.91    3.5462    737.46   3.57   False
   40.53823    668.90    679.29   573.34   905.483   3.95789    910.61   3.97   False
   40.63823    899.79    914.20   573.76   1118.65   4.39983   1136.62   4.44   False
   40.73823   1127.38   1145.45   574.18   1374.28   4.87346   1408.17   4.93   False
   40.83823   1273.66   1293.71   574.61   1573.84    5.2167   1608.47   5.28   False
   40.93823   1264.19   1283.62   575.03   1628.56   5.30612   1646.34   5.33   False
   41.03823   1092.69   1109.10   575.45   1475.45   5.04972   1500.45   5.09   False
   41.13823    836.03    848.30   575.87   1184.78   4.21435   1206.12   4.25   False
   41.23823    581.15    589.46   576.29   865.981   3.25932    880.50   3.29   False
   41.33823    378.05    383.29   576.72   636.662   2.79507    640.21   2.80   False
   41.43823    239.64    242.84   577.14    500.69   2.48021    504.84   2.49   False
   41.53823    155.73    157.71   577.56   428.133   2.29309    429.67   2.30   False
   41.63823    108.34    109.64   577.98    392.96   2.19665    390.04   2.19   False
   41.73823     81.85     82.78   578.41   369.816   2.13088    369.90   2.13   False
   41.83823     66.17     66.88   578.83   359.526   2.38276    361.51   2.39   False
   41.93823     55.90     56.48   579.25   349.208   2.59464    347.46   2.59   False
   42.03823     48.50     48.97   579.67   344.717   2.58079    342.59   2.57   False
   42.13823     42.79     43.18   580.10   340.463   2.56285    347.84   2.59   False
   42.23823     38.21     38.55   580.52   338.981   2.55647    340.87   2.56   False
   42.33823     34.50     34.78   580.94   338.266    2.5542    336.99   2.55   False
   42.43823     31.51     31.74   581.36   336.952   2.54792    337.60   2.55   False
   42.53823     29.19     29.38   581.79   335.313   2.54288    335.66   2.54   False
   42.63823     27.59     27.74   582.21   337.619    2.5515    333.23   2.54   False
   42.73823     26.78     26.89   582.63   336.926    2.5483    334.63   2.54   False
   42.83823     26.82     26.89   583.05   332.019   2.52978    331.71   2.53   False
   42.93823     27.65     27.70   583.47   335.379   2.54192    330.14   2.52   False
   43.03823     28.91     28.99   583.90   335.724   2.54424    336.34   2.55   False
   43.13823     29.80     29.96   584.32   336.056   2.54486    337.70   2.55   False
   43.23823     29.25     29.52   584.74   331.433   2.52884    335.30   2.54   False
   43.33823     26.94     27.28   585.16   327.591   2.51273    332.14   2.53   False
   43.43823     23.67     23.99   585.59    329.59   2.52014    327.85   2.51   False
   43.53823     20.41     20.67   586.01   328.292   2.51544    322.58   2.49   False
   43.63823     17.72     17.91   586.43    323.85   2.49893    323.56   2.50   False
   43.73823     15.76     15.88   586.85   325.198   2.50293    324.32   2.50   False
   43.83823     14.41     14.49   587.28   322.064   2.49235    321.91   2.49   False
   43.93823     13.50     13.55   587.70   323.165   2.01444    320.82   2.01   False
   44.03823     12.87     12.90   588.12   322.533   2.01292    321.98   2.01   False
   44.13823     12.39     12.41   588.54   320.121   2.00558    318.92   2.00   False
   44.23823     12.02     12.03   588.97   319.698   2.00399    321.47   2.01   False
   44.33823     11.72     11.72   589.39   320.839   2.00756    317.55   2.00   False
   44.43823     11.48     11.47   589.81   321.633   2.00962    323.37   2.02   False
   44.53823     11.29     11.28   590.23   325.427   2.28201    317.76   2.26   False
   44.63823     11.15     11.13   590.65   322.356   2.50832    321.40   2.50   False
   44.73823     11.05     11.02   591.08   321.437   2.50329    318.29   2.49   False
   44.83823     10.99     10.96   591.50    320.71   2.50036    317.95   2.49   False
   44.93823     10.98     10.94   591.92   322.481   2.50694    320.85   2.50   False
   45.03823     11.02     10.97   592.34   320.534   2.49876    317.08   2.48   False
   45.13823     11.10     11.04   592.77   323.541   2.51132    322.35   2.51   False
   45.23823     11.23     11.16   593.19   320.017   2.49716    325.48   2.52   False
   45.33823     11.41     11.34   593.61   317.772   2.48693    321.21   2.50   False
   45.43823     11.66     11.57   594.03   325.762   2.51916    324.03   2.51   False
   45.53823     11.97     11.87   594.46   318.839   2.49246    321.70   2.50   False
   45.63823     12.36     12.25   594.88   324.529   2.51354    325.30   2.52   False
   45.73823     12.84     12.72   595.30   326.719   2.52295    326.86   2.52   False
   45.83823     13.43     13.29   595.72   323.709   2.51254    319.86   2.50   False
   45.93823     14.14     13.98   596.15   321.294   2.50203    324.02   2.51   False
   46.03823     15.02     14.84   596.57   329.556    2.5346    327.02   2.53   False
   46.13823     16.08     15.88   596.99    322.98   2.50756    328.14   2.53   False
   46.23823     17.40     17.16   597.41   326.726   2.52278    327.13   2.53   False
   46.33823     19.03     18.75   597.83   333.329   2.54776    326.87   2.52   False
   46.43823     21.10     20.78   598.26   327.519   2.52657    329.34   2.53   False
   46.53823     23.85     23.46   598.68   334.003   2.55113    331.22   2.54   False
   46.63823     27.76     27.28   599.10    335.67   2.07093    335.08   2.07   False
   46.73823     33.86     33.23   599.52   341.467   2.08865    339.04   2.08   False
   46.83823     44.20     43.33   599.95   355.931   2.13328    355.59   2.13   False
   46.93823     62.21     60.92   600.37   375.541   2.19128    372.87   2.18   False
   47.03823     92.45     90.46   600.79    405.16   2.27536    401.47   2.26   False
   47.13823    138.85    135.78   601.21   452.434   2.40446    449.60   2.40   False
   47.23823    201.23    196.70   601.64   505.894   3.04259    501.49   3.03   False
   47.33823    270.52    264.37   602.06    559.79   3.20262    567.66   3.23   False
   47.43823    323.69    316.30   602.48   604.347   3.32783    593.96   3.30   False
   47.53823    330.49    322.94   602.90   605.137   3.32981    602.45   3.32   False
   47.63823    287.04    280.51   603.33   574.942   3.24479    574.32   3.24   False
   47.73823    222.74    217.71   603.75   527.109   3.10645    526.37   3.10   False
   47.83823    164.51    160.83   604.17    480.85   2.96623    480.28   2.97   False
   47.93823    124.31    121.54   604.59   443.934   2.85171    439.05   2.84   False
   48.03823    104.75    102.39   605.01   422.069    2.7787    412.45   2.75   False
   48.13823    103.46    101.05   605.44   409.705   2.73837    410.15   2.74   False
   48.23823    114.89    112.11   605.86   413.178      2.75    411.54   2.75   False
   48.33823    130.40    127.18   606.28   415.006   2.75528    417.19   2.76   False
   48.43823    138.26    134.83   606.70    422.11   2.77921    415.32   2.76   False
   48.53823    130.48    127.33   607.13   418.566    2.7685    416.44   2.76   False
   48.63823    112.53    110.00   607.55   411.843   2.74617    414.81   2.76   False
   48.73823     95.78     93.91   607.97   401.382   2.71148    402.74   2.72   False
   48.83823     88.15     86.79   608.39   409.062   2.73542    400.61   2.71   False
   48.93823     94.58     93.56   608.82   412.634   2.74809    415.88   2.76   False
   49.03823    118.52    117.66   609.24    441.79   2.84328    443.26   2.85   False
   49.13823    160.72    159.83   609.66   476.484   2.95225    474.62   2.95   False
   49.23823    215.99    214.91   610.08   515.814   3.07457    508.72   3.05   False
   49.33823    268.84    267.49   610.51   540.757     2.547    546.38   2.56   False
   49.43823    292.54    290.93   610.93   554.268   2.57847    554.79   2.58   False
   49.53823    269.26    267.64   611.35   539.974   2.54609    536.75   2.54   False
   49.63823    214.99    213.63   611.77   506.313   2.46569    507.23   2.47   False
   49.73823    157.27    156.27   612.19   457.621   2.34342    463.80   2.36   False
   49.83823    110.32    109.65   612.62   420.309   2.24523    424.16   2.26   False
   49.93823     77.18     76.77   613.04    392.69   2.42124    388.63   2.41   False
   50.03823     56.06     55.84   613.46   371.158   2.58529    370.46   2.58   False
   50.13823     43.59     43.50   613.88   363.004   2.55687    360.64   2.55   False
   50.23823     36.55     36.57   614.31   358.051   2.53924    351.66   2.52   False
   50.33823     32.74     32.87   614.73    348.35   2.50391    351.28   2.51   False
   50.43823     31.08     31.34   615.15   351.336   2.51429    349.89   2.51   False
   50.53823     31.28     31.73   615.57   358.538   2.53925    357.39   2.54   False
   50.63823     33.54     34.28   616.00   367.099   2.57084    374.87   2.60   False
   50.73823     38.24     39.39   616.42   385.593   2.63303    388.36   2.64   False
   50.83823     45.69     47.37   616.84   408.856   2.71194    408.42   2.71   False
   50.93823     55.97     58.24   617.26   431.286   2.78539    439.40   2.81   False
   51.03823     68.95     71.73   617.69   451.079   2.84776    461.79   2.88   False
   51.13823     85.57     88.72   618.11   480.806   2.94056    484.38   2.95   False
   51.23823    108.72    112.26   618.53   489.194   2.96716    493.28   2.98   False
   51.33823    139.00    143.10   618.95   494.051   2.98184    497.62   2.99   False
   51.43823    169.50    174.20   619.38   491.503    2.9746    496.17   2.99   False
   51.53823    184.73    189.68   619.80    473.03   2.91616    481.49   2.94   False
   51.63823    171.88    176.38   620.22   442.233   2.82038    442.67   2.82   False
   51.73823    138.86    142.41   620.64   407.686   2.70776    414.54   2.73   False
   51.83823    103.23    105.78   621.06   377.378   2.60472    380.08   2.62   False
   51.93823     74.18     75.91   621.49   355.273   2.52968    357.25   2.54   False
   52.03823     53.46     54.60   621.91    347.02   2.05709    338.29   2.03   False
   52.13823     39.90     40.66   622.33    330.55   2.00754    331.84   2.01   False
   52.23823     31.58     32.10   622.75   325.755   1.99377    324.77   1.99   False
   52.33823     26.61     26.97   623.18    322.02    1.9825    323.32   1.99   False
   52.43823     23.60     23.85   623.60   319.744    1.9749    322.23   1.98   False
   52.53823     21.70     21.88   624.02    316.91   1.96558    317.72   1.97   False
   52.63823     20.51     20.63   624.44   315.638   2.18903    320.22   2.21   False
   52.73823     19.83     19.90   624.87   319.506   2.41008    316.30   2.40   False
   52.83823     19.57     19.60   625.29   318.034   2.40466    321.17   2.42   False
   52.93823     19.69     19.68   625.71   319.161   2.40878    319.11   2.41   False
   53.03823     20.17     20.13   626.13   323.076   2.42285    320.33   2.41   False
   53.13823     21.07     20.99   626.56   321.155   2.41532    314.42   2.39   False
   53.23823     22.52     22.40   626.98   325.994   2.43279    322.76   2.42   False
   53.33823     24.85     24.67   627.40   332.561   2.45856    329.70   2.45   False
   53.43823     28.72     28.45   627.82   332.764   2.45765    336.97   2.48   False
   53.53823     35.44     35.02   628.24   344.586   2.50153    344.92   2.50   False
   53.63823     47.12     46.45   628.67   361.904   2.56367    359.47   2.56   False
   53.73823     66.50     65.43   629.09    387.81   2.65306    384.26   2.64   False
   53.83823     95.65     93.97   629.51   418.895    2.7578    414.70   2.74   False
   53.93823    133.52    131.09   629.93   455.558   2.87694    442.88   2.84   False
   54.03823    173.02    169.87   630.36    481.43   2.95751    471.67   2.93   False
   54.13823    199.22    195.76   630.78   486.323   2.97297    488.27   2.98   False
   54.23823    197.73    194.69   631.20   479.541   2.95014    481.57   2.96   False
   54.33823    173.95    171.89   631.62   473.566   2.93248    469.02   2.92   False
   54.43823    146.57    145.47   632.05   454.316   2.87203    459.42   2.89   False
   54.53823    126.30    125.66   632.47   443.433   2.83693    439.82   2.83   False
   54.63823    115.87    115.02   632.89   434.082   2.80949    436.92   2.82   False
   54.73823    115.97    114.43   633.31   430.228   2.29518    430.16   2.30   False
   54.83823    124.38    121.98   633.74   432.729   2.30168    431.33   2.30   False
   54.93823    134.12    131.10   634.16   433.452   2.30459    437.28   2.31   False
   55.03823    136.22    133.26   634.58   438.089   2.31709    437.95   2.32   False
   55.13823    129.63    127.53   635.00   434.896   2.30796    439.23   2.32   False
   55.23823    123.67    122.91   635.32   434.286    2.3057    434.01   2.31   False
   55.33823    125.51    126.22   635.54   431.046   2.59065    433.40   2.60   False
   55.43823    134.06    136.13   635.75   432.673   2.86006    436.39   2.87   False
   55.53823    141.66    144.73   635.97    433.25   2.86213    430.71   2.85   False
   55.63823    139.04    142.44   636.19   434.662   2.86664    436.39   2.87   False
   55.73823    125.86    129.01   636.40   420.514   2.81882    430.05   2.85   False
   55.83823    112.30    115.07   636.62    415.81   2.80263    431.35   2.85   False
   55.93823    106.76    109.36   636.83   421.461   2.82085    431.86   2.86   False
   56.03823    110.56    113.29   637.05   433.279   2.86175    437.02   2.87   False
   56.13823    119.46    122.48   637.27   443.226   2.89246    447.30   2.91   False
   56.23823    124.89    128.06   637.48   450.409   2.91651    450.63   2.92   False
   56.33823    118.23    121.15   637.70   445.214   2.89969    447.38   2.91   False
   56.43823    100.69    102.96   637.92   434.914   2.86512    436.83   2.87   False
   56.53823     81.47     83.00   638.13   420.624    2.8181    420.79   2.82   False
   56.63823     66.73     67.58   638.35   399.728    2.7482    404.10   2.76   False
   56.73823     58.13     58.35   638.56   392.431   2.72299    392.07   2.72   False
   56.83823     55.70     55.30   638.78   383.065   2.69071    380.82   2.68   False
   56.93823     58.96     57.87   639.00   376.065   2.66418    379.56   2.68   False
   57.03823     66.52     64.68   639.21   383.969   2.69274    380.17   2.68   False
   57.13823     75.43     72.86   639.43   383.417    2.6906    380.22   2.68   False
   57.23823     80.98     77.95   639.65   389.522   2.71143    392.06   2.72   False
   57.33823     79.35     76.33   639.86   385.515   2.70001    384.70   2.70   False
   57.43823     72.54     69.92   640.08   392.303   2.23412    387.75   2.22   False
   57.53823     66.60     64.44   640.29   385.329   2.21402    383.57   2.21   False
   57.63823     66.15     64.30   640.51   392.595   2.23575    387.26   2.22   False
   57.73823     74.29     72.50   640.73   397.798   2.25072    394.43   2.24   False
   57.83823     93.93     91.88   640.94   416.372   2.30201    415.63   2.30   False
   57.93823    127.11    124.48   641.16   448.482   2.38845    442.59   2.37   False
   58.03823    172.22    168.74   641.38   491.098   2.80354    482.63   2.78   False
   58.13823    220.60    216.18   641.59   535.152    3.2041    522.17   3.17   False
   58.23823    254.54    249.45   641.81   557.662   3.27098    549.61   3.25   False
   58.33823    254.37    249.30   642.02   552.835    3.2566    548.58   3.24   False
   58.43823    221.06    216.66   642.24   526.444   3.17706    518.47   3.15   False
   58.53823    178.41    174.86   642.46   491.145   3.06828    488.83   3.06   False
   58.63823    145.72    142.80   642.67   457.933   2.96194    451.91   2.94   False
   58.73823    129.31    126.66   642.89   430.795   2.87446    434.70   2.89   False
   58.83823    129.17    126.43   643.11   435.631   2.88859    426.62   2.86   False
   58.93823    142.09    138.97   643.32   434.904   2.88688    430.79   2.87   False
   59.03823    160.84    157.22   643.54   438.139   2.89765    439.46   2.90   False
   59.13823    173.32    169.37   643.75   444.971    2.9193    438.78   2.90   False
   59.23823    167.12    163.31   643.97    442.18   2.91059    437.82   2.90   False
   59.33823    142.35    139.13   644.19    425.57   2.85643    423.76   2.85   False
   59.43823    111.94    109.48   644.40   415.463    2.8223    409.89   2.80   False
   59.53823     85.87     84.05   644.62   397.161   2.75986    390.00   2.74   False
   59.63823     66.44     65.11   644.84   372.713   2.67173    371.53   2.67   False
   59.73823     52.71     51.72   645.05   362.793   2.63663    359.71   2.63   False
   59.83823     43.27     42.52   645.27   351.276   2.59423    346.29   2.58   False
   59.93823     36.92     36.34   645.48   342.128   2.55976    343.15   2.56   False
   60.03823     32.71     32.25   645.70   340.725   2.55693    339.57   2.55   False
   60.13823     29.89     29.53   645.92   333.515   2.05834    335.85   2.07   False
   60.23823     28.02     27.74   645.80    334.45   2.06109    336.61   2.07   False
   60.33823     26.88     26.68   645.36   335.178   2.06421    336.18   2.07   False
   60.43823     26.42     26.32   644.92   339.474   2.07759    339.06   2.08   False
   60.53823     26.67     26.71   644.47    344.45   2.09215    346.48   2.10   False
   60.63823     27.67     27.89   644.03   356.043   2.12648    354.59   2.12   False
   60.73823     29.37     29.81   643.59   365.551   2.41543    360.37   2.40   False
   60.83823     31.49     32.18   643.15   377.493   2.69281    376.51   2.69   False
   60.93823     33.50     34.38   642.70   375.997   2.68761    382.17   2.71   False
   61.03823     34.72     35.65   642.26   373.744   2.67939    375.28   2.68   False
   61.13823     34.97     35.77   641.82   362.678   2.63872    370.95   2.67   False
   61.23823     35.03     35.61   641.37   353.539   2.60491    353.08   2.60   False
   61.33823     35.97     36.33   640.93   351.951   2.59836    347.50   2.58   False
   61.43823     38.66     38.83   640.49   344.631   2.57266    345.26   2.57   False
   61.53823     44.08     44.10   640.04   345.851   2.57546    344.27   2.57   False
   61.63823     53.67     53.54   639.60   350.951   2.59501    354.11   2.61   False
   61.73823     69.29     69.00   639.16    355.13   2.61047    357.43   2.62    True
   61.83823     92.45     92.02   638.72   376.398   2.68671    372.71   2.67    True
   61.93823    122.92    122.38   638.27   395.666   2.75506    399.17   2.77    True
   62.03823    156.91    156.36   637.83   430.876   2.87602    434.31   2.89    True
   62.13823    186.00    185.59   637.39   487.142   3.05805    492.37   3.07    True
   62.23823    199.36    199.23   636.94   571.458   3.31265    574.29   3.32    True
   62.33823    191.92    192.01   636.50   643.348   3.51247    652.67   3.54    True
   62.43823    170.93    170.97   636.06   656.504   3.54914    666.89   3.58    True
   62.53823    150.22    149.98   635.62   598.186   3.38754    604.22   3.40    True
   62.63823    139.75    139.12   635.17   521.836   3.16346    526.23   3.18    True
   62.73823    143.40    142.28   634.73   482.984   3.04627    481.06   3.04    True
   62.83823    161.73    160.03   634.29   485.477   2.45995    486.75   2.46    True
   62.93823    193.04    190.62   633.84   526.313   2.56117    526.31   2.56    True
   63.03823    232.30    229.12   633.40   590.359   2.71367    584.49   2.70    True
   63.13823    270.38    266.52   632.96   650.128   2.84799    639.41   2.82    True
   63.23823    297.51    293.23   632.51   682.439   2.91707    675.71   2.90   False
   63.33823    311.45    307.04   632.07   679.385   2.90971    673.17   2.90   False
   63.43823    315.06    310.73   631.63   654.665   3.16711    649.11   3.16   False
   63.53823    305.47    301.49   631.19   613.704   3.35508    605.53   3.33   False
   63.63823    280.05    276.76   630.74   569.453   3.23203    559.68   3.20   False
   63.73823    249.46    247.12   630.30   540.305   3.14807    531.94   3.12   False
   63.83823    230.47    229.15   629.86   517.311   3.07951    519.76   3.09   False
   63.93823    232.49    232.23   629.41   534.273   3.12917    530.34   3.12   False
   64.03823    255.93    256.75   628.97   559.448   3.20118    564.41   3.22   False
   64.13823    294.20    296.10   628.53    601.78   3.32196    610.47   3.35   False
   64.23823    334.21    337.00   628.09   630.698   3.39857    632.54   3.41   False
   64.33823    357.58    360.83   627.64   656.262   3.46758    652.21   3.46   False
   64.43823    350.33    353.36   627.20   638.824   3.42126    644.50   3.44   False
   64.53823    319.43    321.65   626.76   621.736   3.37422    625.45   3.39   False
   64.63823    289.30    290.40   626.31   610.026   3.34282    608.09   3.34   False
   64.73823    279.17    279.10   625.87   609.505   3.34258    614.76   3.36   False
   64.83823    294.60    293.37   625.43   634.285   3.40984    630.80   3.40   False
   64.93823    331.06    328.71   624.98   665.412   3.49304    671.74   3.51   False
   65.03823    376.68    373.37   624.54   705.031   3.59308    695.95   3.57   False
   65.13823    413.79    409.80   624.10   714.494   3.61808    719.76   3.63   False
   65.23823    422.58    418.30   623.66   715.838   3.62117    709.04   3.60   False
   65.33823    393.01    388.86   623.21   684.145   3.53948    676.17   3.52   False
   65.43823    338.09    334.30   622.77   639.112   3.13039    632.08   3.11   False
   65.53823    281.65    278.20   622.33    596.43   2.69355    589.03   2.68   False
   65.63823    236.31    233.11   621.88   560.355   2.61117    564.20   2.62   False
   65.73823    201.65    198.69   621.44   534.073    2.5507    520.21   2.52   False
   65.83823    173.03    170.42   621.00   506.319   2.48312    503.80   2.48   False
   65.93823    148.34    146.18   620.56   479.186   2.41542    479.92   2.42   False
   66.03823    128.65    126.94   620.11   460.076   2.36666    461.15   2.37   False
   66.13823    115.18    113.87   619.67   442.163   2.57826    442.35   2.58   False
   66.23823    108.21    107.21   619.23   436.664   2.80201    434.08   2.80   False
   66.33823    107.91    107.19   618.78    432.45   2.79157    432.66   2.79   False
   66.43823    115.32    114.86   618.34   448.159   2.83964    449.24   2.84   False
   66.53823    132.34    132.18   617.90   465.917   2.89445    461.94   2.88   False
   66.63823    161.08    161.25   617.45   494.803   2.98334    492.65   2.98   False
   66.73823    202.35    202.86   617.01   526.117   3.07471    526.45   3.08   False
   66.83823    253.92    254.71   616.57   563.018   3.18211    570.44   3.20   False
   66.93823    309.24    310.10   616.13   608.603   3.30836    615.64   3.33   False
   67.03823    357.99    358.59   615.68   654.278   3.42944    656.88   3.44   False
   67.13823    391.40    391.35   615.24   702.427   3.55355    694.33   3.53   False
   67.23823    411.00    410.06   614.80   728.245   3.61734    729.75   3.62   False
   67.33823    428.62    426.83   614.35   759.397   3.69546    758.70   3.69   False
   67.43823    457.00    454.48   613.91    800.97   3.79423    800.58   3.79   False
   67.53823    500.62    497.42   613.47   850.385   3.91194    844.35   3.90   False
   67.63823    549.71    545.83   613.03   883.942   3.98609    877.06   3.97   False
   67.73823    581.42    577.01   612.58   896.906   4.01486    888.56   4.00   False
   67.83823    570.97    566.40   612.14   868.706   3.95169    865.95   3.95   False
   67.93823    512.02    507.77   611.70   812.593   3.82279    805.44   3.80   False
   68.03823    426.83    423.21   611.25   738.632   3.64287    733.85   3.63   False
   68.13823    345.61    342.59   610.81   665.277     3.176    661.73   3.17   False
   68.23823    284.39    281.77   610.37    609.95   2.71912    603.96   2.71   False
   68.33823    245.27    242.81   609.92   573.733   2.63831    572.82   2.64   False
   68.43823    224.86    222.36   609.48   551.525   2.58741    543.91   2.57   False
   68.53823    218.87    216.20   609.04   538.628   2.55596    535.90   2.55   False
   68.63823    222.73    219.82   608.60   530.779   2.53775    527.90   2.53   False
   68.73823    230.88    227.78   608.15   531.712   2.54004    525.20   2.52   False
   68.83823    236.85    233.70   607.71   527.783   2.83924    523.24   2.83   False
   68.93823    235.17    232.18   607.27   530.977   3.12729    525.27   3.11   False
   69.03823    225.38    222.75   606.82   532.154   3.13227    533.82   3.13   False
   69.13823    212.67    210.52   606.38   535.743   3.14048    529.96   3.12   False
   69.23823    201.89    200.25   605.94   537.291   3.14448    533.34   3.13   False
   69.33823    193.43    192.27   605.50   528.835   3.11982    524.64   3.11   False
   69.43823    185.16    184.46   605.05   520.979   3.09684    512.50   3.07   False
   69.53823    176.67    176.38   604.61   496.622   3.02274    499.34   3.03   False
   69.63823    170.82    170.88   604.17   485.271   2.98811    484.70   2.99   False
   69.73823    171.15    171.51   603.72   484.241   2.98494    479.18   2.97   False
   69.83823    178.68    179.33   603.28   480.292   2.97305    481.44   2.98   False
   69.93823    191.19    192.08   602.84   496.275    3.0209    490.69   3.01   False
   70.03823    204.36    205.34   602.39   507.514   3.05687    500.77   3.04   False
   70.13823    213.74    214.59   601.95   518.189   3.08851    524.64   3.11   False
   70.23823    217.90    218.34   601.51   532.058   3.13008    536.55   3.14   False
   70.33823    220.15    219.97   601.07   549.965    3.1808    544.79   3.17   False
   70.43823    224.95    224.07   600.62   550.765   3.18292    547.79   3.17   False
   70.53823    232.70    231.17   600.18   547.132   3.17281    548.66   3.18   False
   70.63823    238.96    236.94   599.74   547.451   3.17423    539.30   3.15   False
   70.73823    237.58    235.33   599.29   520.834   3.09654    511.99   3.07   False
   70.83823    226.04    223.83   598.85   498.753   2.78244    494.44   2.77   False
   70.93823    209.19    207.21   598.41   477.884   2.44908    475.53   2.44   False
   71.03823    196.52    194.78   597.96    469.98   2.42982    462.96   2.41   False
   71.13823    196.53    194.93   597.52   466.849   2.42229    463.54   2.41   False
   71.23823    215.23    213.60   597.08   492.871   2.48769    485.36   2.47   False
   71.33823    257.53    255.65   596.64   525.655    2.5695    526.36   2.57   False
   71.43823    327.51    325.18   596.19   602.158   2.75105    599.87   2.74   False
   71.53823    426.47    423.49   595.75   706.446   3.68326    707.12   3.69   False
   71.63823    549.70    545.93   595.31   843.396   4.02696    843.18   4.03   False
   71.73823    683.75    679.24   594.86   1000.14   4.38738    998.91   4.38   False
   71.83823    806.01    801.04   594.42   1143.57   4.68796   1136.69   4.68   False
   71.93823    888.68    883.81   593.98   1238.13   4.87707   1247.42   4.89   False
   72.03823    911.38    907.33   593.54   1288.82    4.9762   1286.08   4.97   False
   72.13823    878.11    875.49   593.09   1242.82   4.88703   1244.29   4.89   False
   72.23823    815.04    814.10   592.65   1158.25   4.71655   1162.54   4.73   False
   72.33823    744.83    745.37   592.21    1051.7   4.49453   1057.11   4.51   False
   72.43823    670.97    672.47   591.76   926.491   4.21852    937.32   4.24   False
   72.53823    587.20    589.07   591.32   822.224   3.97446    823.06   3.98   False
   72.63823    494.20    495.97   590.88   714.099   3.70243    719.57   3.72   False
   72.73823    402.78    404.20   590.43   622.132     3.458    622.24   3.46   False
   72.83823    323.81    324.86   589.99   541.357   3.22533    539.28   3.22   False
   72.93823    261.35    262.11   589.55   497.594   3.09274    500.16   3.10   False
   73.03823    213.86    214.42   589.11    472.43    3.0121    473.41   3.02    True
   73.13823    177.74    178.16   588.66   471.568   3.00918    475.51   3.02    True
   73.23823    149.66    149.98   588.22   491.313   3.07191    494.67   3.08    True
   73.33823    127.31    127.55   587.78   522.807   3.16934    519.45   3.16    True
   73.43823    109.24    109.44   587.33   525.505   3.17795    530.75   3.20    True
   73.53823     94.56     94.73   586.89   497.803   2.83521    494.46   2.83    True
   73.63823     82.57     82.74   586.45   449.551   2.41492    443.21   2.40    True
   73.73823     72.72     72.89   586.01   392.873   2.25856    391.99   2.26    True
   73.83823     64.54     64.73   585.56   358.038   2.15662    355.64   2.15    True
   73.93823     57.68     57.88   585.12   341.258   2.10449    339.97   2.10    True
   74.03823     51.85     52.05   584.68   328.168   2.06408    331.45   2.07    True
   74.13823     46.85     47.04   584.23   326.783   2.06034    325.77   2.06    True
   74.23823     42.55     42.71   583.79   325.062   2.54359    328.04   2.56   False
   74.33823     38.84     38.96   583.35   332.091   2.57265    325.58   2.55   False
   74.43823     35.68     35.77   582.90   329.517   2.56389    329.40   2.56   False
   74.53823     33.00     33.06   582.46   323.549   2.53867    326.36   2.55   False
   74.63823     30.73     30.77   582.02    323.18   2.53679    325.11   2.54   False
   74.73823     28.80     28.83   581.58   321.646   2.53092    324.61   2.54   False
   74.83823     27.16     27.18   581.13   323.338    2.5378    319.07   2.52   False
   74.93823     25.74     25.76   580.69   319.255   2.52102    319.90   2.53   False
   75.03823     24.52     24.53   580.25    315.02   2.50434    314.00   2.50   False
   75.13823     23.47     23.46   579.80   313.926   2.49999    315.48   2.51   False
   75.23823     22.54     22.53   579.00   311.997   2.49255    307.66   2.48   False
   75.33823     21.74     21.72   577.82   310.316   2.48484    312.91   2.50   False
   75.43823     21.03     21.01   576.65   304.518   2.46309    304.04   2.46   False
   75.53823     20.42     20.40   575.47   302.934   2.45639    306.86   2.47   False
   75.63823     19.89     19.86   574.30   305.864   2.46865    303.31   2.46   False
   75.73823     19.44     19.41   573.12   306.308   2.46926    305.30   2.47   False
   75.83823     19.06     19.03   571.95   305.656   2.46649    306.78   2.47   False
   75.93823     18.75     18.72   570.77   303.562   2.45834    300.62   2.45   False
   76.03823     18.53     18.50   569.60   301.686   2.45111    301.89   2.45   False
   76.13823     18.41     18.38   568.43   303.221   2.45767    299.47   2.44   False
   76.23823     18.39     18.37   567.25    302.57   2.45393    299.51   2.44   False
   76.33823     18.51     18.50   566.08   300.741   1.96078    299.36   1.96   False
   76.43823     18.82     18.83   564.90   301.544   1.96388    300.60   1.96   False
   76.53823     19.35     19.38   563.73   300.782   1.96154    301.18   1.96   False
   76.63823     20.15     20.22   562.55   300.608   1.96058    298.35   1.95   False
   76.73823     21.22     21.34   561.38   301.242   1.96258    298.95   1.95   False
   76.83823     22.55     22.72   560.20   304.277   1.97259    306.03   1.98   False
   76.93823     24.03     24.26   559.03   303.501   2.39386    305.79   2.40   False
   77.03823     25.55     25.82   557.85   305.112   2.40305    302.36   2.39   False
   77.13823     26.94     27.23   556.68   300.353   2.38285    298.68   2.38   False
   77.23823     28.09     28.38   555.51   302.311    2.3905    299.87   2.38   False
   77.33823     29.08     29.31   554.33   296.512   2.36718    296.09   2.37   False
   77.43823     30.21     30.34   553.16   301.884   2.38795    298.67   2.37   False
   77.53823     32.00     31.99   551.98   298.632   2.37587    303.03   2.39   False
   77.63823     34.90     34.73   550.81   300.435   2.38261    299.33   2.38   False
   77.73823     39.19     38.84   549.63   300.303   2.38066    298.64   2.38   False
   77.83823     44.86     44.30   548.46   299.738   2.37955    307.37   2.41   False
   77.93823     51.61     50.82   547.28   309.954   2.41996    307.04   2.41   False
   78.03823     58.88     57.87   546.11   310.345   2.42044    309.53   2.42   False
   78.13823     65.92     64.69   544.94   314.039   2.43573    314.57   2.44   False
   78.23823     71.86     70.46   543.76   315.411   2.44226    318.06   2.45   False
   78.33823     76.07     74.54   542.59   317.829    2.4505    318.62   2.45   False
   78.43823     78.34     76.76   541.41   320.684   2.46207    325.65   2.48   False
   78.53823     78.86     77.27   540.24   328.312   2.48957    328.44   2.49   False
   78.63823     77.78     76.25   539.06   335.586   2.51773    331.55   2.50   False
   78.73823     75.19     73.78   537.89   330.816   2.49938    336.56   2.52   False
   78.83823     71.53     70.30   536.71   341.633   2.54102    335.43   2.52   False
   78.93823     67.94     66.93   535.54   342.288   2.31307    340.23   2.30   False
   79.03823     66.07     65.28   534.36   339.925   2.04098    340.38   2.04   False
   79.13823     67.51     66.95   533.19   344.556   2.05512    347.37   2.06   False
   79.23823     73.53     73.20   532.02   353.362   2.08239    352.57   2.08   False
   79.33823     85.07     84.96   530.84   360.383   2.10244    361.68   2.11   False
   79.43823    102.63    102.76   529.67   375.574   2.14603    375.76   2.15   False
   79.53823    126.06    126.48   528.49    394.86   2.20098    395.64   2.20   False
   79.63823    154.26    154.99   527.32   424.297   2.73865    415.55   2.71   False
   79.73823    184.82    185.89   526.14   443.908   2.80142    433.79   2.77   False
   79.83823    214.10    215.50   524.97    477.64    2.9092    475.36   2.90   False
   79.93823    237.54    239.22   523.79   494.973   2.95925    495.93   2.96   False
   80.03823    250.65    252.51   522.62   511.091    3.0061    510.50   3.00   False
   80.13823    250.61    252.50   521.45   514.128   3.01553    517.17   3.02   False
   80.23823    238.06    239.81   520.27   510.962   3.00467    520.59   3.04   False
   80.33823    217.43    218.90   519.10   503.676   2.98457    504.26   2.99   False
   80.43823    194.72    195.81   517.92   484.244   2.92628    485.22   2.93   False
   80.53823    174.45    175.15   516.75   476.248   2.90137    469.92   2.88   False
   80.63823    158.28    158.63   515.57   458.537   2.84702    452.77   2.83   False
   80.73823    145.50    145.58   514.40   444.021   2.80085    440.85   2.79   False
   80.83823    134.38    134.28   513.22   434.628   2.77222    435.95   2.78   False
   80.93823    123.43    123.26   512.05   424.039   2.73756    421.30   2.73   False
   81.03823    112.24    112.09   510.88   409.498   2.69185    402.31   2.67   False
   81.13823    101.58    101.51   509.70   393.222   2.63634    389.39   2.62   False
   81.23823     92.75     92.81   508.53   380.914    2.5945    378.62   2.59   False
   81.33823     86.79     87.02   507.35    368.65    2.5527    374.52   2.57   False
   81.43823     84.14     84.54   506.18    355.83   2.50846    358.30   2.52   False
   81.53823     84.61     85.20   505.00     348.9   2.48272    354.82   2.51   False
   81.63823     87.53     88.33   503.83    352.77   2.28058    348.73   2.27   False
   81.73823     91.94     92.95   502.65   351.344   2.03147    350.53   2.03   False
   81.83823     96.69     97.90   501.48   350.753   2.03063    349.79   2.03   False
   81.93823    100.61    101.97   500.30   355.758    2.0456    355.26   2.04   False
   82.03823    102.72    104.18   499.13   353.416   2.03804    355.99   2.05   False
   82.13823    102.58    104.05   497.96   356.748   2.04801    360.97   2.06   False
   82.23823    100.60    102.02   496.78   358.836   2.05405    355.18   2.04   False
   82.33823     98.04     99.36   495.61   355.065   2.27905    354.95   2.28   False
   82.43823     96.50     97.71   494.43   356.456   2.50011    355.07   2.50   False
   82.53823     97.16     98.26   493.26   354.658   2.49499    363.75   2.53   False
   82.63823    100.43    101.43   492.08     357.6   2.50346    362.41   2.52   False
   82.73823    106.02    106.91   490.91    363.75   2.52446    360.54   2.51   False
   82.83823    113.15    113.91   489.73   363.619   2.52416    366.63   2.53   False
   82.93823    120.91    121.49   488.56   372.889   2.55638    368.37   2.54   False
   83.03823    128.47    128.82   487.39   368.802   2.54159    367.74   2.54   False
   83.13823    135.23    135.32   486.21   369.064   2.54261    366.55   2.53   False
   83.23823    140.73    140.53   485.04   371.938   2.55249    363.92   2.53   False
   83.33823    144.69    144.21   483.86   364.355   2.52659    364.53   2.53   False
   83.43823    147.04    146.30   482.69   357.641   2.50221    363.17   2.52   False
   83.53823    147.91    146.92   481.51   361.359   2.51679    356.36   2.50   False
   83.63823    147.54    146.33   480.34   355.701   2.49672    355.48   2.50   False
   83.73823    146.24    144.85   479.16   350.175   2.47766    356.44   2.50   False
   83.83823    144.54    143.02   477.99   355.901   2.49664    353.81   2.49   False
   83.93823    143.07    141.45   476.82   354.232   2.49064    357.56   2.50   False
   84.03823    142.23    140.52   475.64   362.519   2.51993    362.55   2.52   False
   84.13823    141.85    140.06   474.47   361.686   2.51742    358.92   2.51   False
   84.23823    141.26    139.44   473.29   362.461    2.5205    363.11   2.52   False
   84.33823    139.80    137.98   472.12   365.446   2.52966    363.06   2.52   False
   84.43823    137.29    135.52   470.94   363.684   2.04923    359.99   2.04   False
   84.53823    134.44    132.75   469.77   363.485   2.04918    364.42   2.05   False
   84.63823    132.59    130.98   468.59   365.399   2.05472    362.16   2.04   False
   84.73823    133.05    131.51   467.42   364.244   2.05104    361.75   2.04   False
   84.83823    136.50    135.00   466.24   364.176   2.05079    359.30   2.04   False
   84.93823    142.78    141.29   465.07    366.17   2.05655    357.93   2.03   False
   85.03823    151.07    149.55   463.90   355.586    2.4758    360.88   2.50   False
   85.13823    160.24    158.67   462.72   362.892   2.50408    367.48   2.52   False
   85.23823    169.24    167.61   462.50   371.482   2.53207    365.01   2.51   False
   85.33823    177.39    175.70   463.24   370.936   2.53012    371.00   2.53   False
   85.43823    184.51    182.76   463.98   376.653    2.5492    377.59   2.55   False
   85.53823    190.99    189.17   464.72   386.284   2.58097    385.59   2.58   False
   85.63823    197.65    195.76   465.45   402.271   2.63475    395.88   2.61   False
   85.73823    205.35    203.38   466.19   416.483   2.68041    418.93   2.69   False
   85.83823    214.30    212.24   466.93   440.278   2.75427    440.96   2.76   False
   85.93823    223.57    221.42   467.67   464.842    2.8314    457.80   2.81   False
   86.03823    231.12    228.91   468.41   480.247   2.87816    481.00   2.88   False
   86.13823    234.33    232.09   469.14   486.546   2.89575    491.02   2.91   False
   86.23823    230.79    228.61   469.88   489.297   2.90503    481.44   2.88   False
   86.33823    219.35    217.29   470.62   468.406   2.84374    465.15   2.83   False
   86.43823    200.76    198.90   471.36   441.749   2.76039    450.34   2.79   False
   86.53823    177.63    176.02   472.09   426.117   2.71176    420.60   2.69   False
   86.63823    153.45    152.08   472.83   393.751   2.60506    393.22   2.60   False
   86.73823    131.21    130.07   473.57   383.035   2.57007    377.40   2.55   False
   86.83823    112.71    111.76   474.31   367.769   2.51796    362.41   2.50   False
   86.93823     98.55     97.73   475.05   350.563   2.45944    353.33   2.47   False
   87.03823     88.45     87.72   475.78   344.166   2.43661    339.25   2.42   False
   87.13823     81.79     81.10   476.52   338.942   1.99803    334.19   1.98   False
   87.23823     77.86     77.19   477.26   331.202   1.97498    332.21   1.98   False
   87.33823     76.09     75.41   478.00   328.971   1.96911    326.68   1.96   False
   87.43823     76.02     75.31   478.73   324.341   1.95525    323.83   1.95   False
   87.53823     77.31     76.55   479.47   327.114   1.96296    326.87   1.96   False
   87.63823     79.62     78.80   480.21   328.728    1.9678    326.85   1.96   False
   87.73823     82.55     81.68   480.95   329.655    2.4178    327.59   2.41   False
   87.83823     85.66     84.74   481.69   327.729   2.41219    325.66   2.40   False
   87.93823     88.40     87.46   482.42   336.485   2.44434    329.48   2.42   False
   88.03823     90.26     89.32   483.16   336.547    2.4444    339.88   2.46   False
   88.13823     90.84     89.95   483.90   348.117   2.48541    341.03   2.46   False
   88.23823     90.03     89.20   484.64   346.056   2.47772    349.41   2.49   False
   88.33823     88.04     87.30   485.37   350.622   2.49333    352.36   2.50   False
   88.43823     85.36     84.71   486.11   352.563   2.50164    352.64   2.50   False
   88.53823     82.50     81.91   486.85   353.324   2.50263    352.34   2.50   False
   88.63823     79.86     79.31   487.59   349.277   2.48887    356.10   2.51   False
   88.73823     77.67     77.11   488.33    341.84   2.46228    346.29   2.48   False
   88.83823     76.07     75.46   489.06   341.147   2.45907    344.79   2.47   False
   88.93823     75.18     74.48   489.80   342.548    2.4645    340.91   2.46   False
   89.03823     75.11     74.29   490.54   334.966   2.43794    333.17   2.43   False
   89.13823     75.91     74.96   491.28   330.301   2.42091    333.28   2.43   False
   89.23823     77.54     76.45   492.01   329.799   2.41944    327.58   2.41   False
   89.33823     79.81     78.59   492.75   325.251   2.40105    330.91   2.42   False
   89.43823     82.50     81.16   493.49   328.846   2.41492    331.16   2.42   False
   89.53823     85.41     83.97   494.23   332.782   2.42913    334.18   2.43   False
   89.63823     88.41     86.88   494.97   337.785   2.44688    336.02   2.44   False
   89.73823     91.47     89.85   495.70   343.679   2.25615    338.36   2.23   False
   89.83823     94.55     92.87   496.44   342.815   2.01076    344.37   2.02   False
   89.93823     97.63     95.90   497.18   349.781   2.03134    344.58   2.02   False
   90.03823    100.71     98.94   497.92    352.22    2.0396    348.78   2.03   False
   90.13823    103.90    102.10   498.65    350.17    2.0333    351.80   2.04   False
   90.23823    107.43    105.62   499.39   353.893   2.04388    355.21   2.05   False
   90.33823    111.62    109.82   500.13   358.983   2.05843    358.31   2.06   False
   90.43823    116.72    114.94   500.87   360.178   2.32113    355.92   2.31   False
   90.53823    122.78    121.02   501.61   360.339   2.55483    363.87   2.57   False
   90.63823    129.55    127.83   502.34   364.473   2.57233    361.27   2.56   False
   90.73823    136.57    134.90   503.08   375.931   2.61044    367.26   2.58   False
   90.83823    143.22    141.62   503.82   375.064   2.60662    379.87   2.62   False
   90.93823    148.79    147.28   504.56   385.973   2.64471    379.98   2.62   False
   91.03823    152.54    151.13   505.29   385.846   2.64291    389.73   2.66   False
   91.13823    153.72    152.40   506.03   385.671   2.64351    391.08   2.66   False
   91.23823    151.71    150.49   506.77   387.434   2.64944    385.31   2.64   False
   91.33823    146.26    145.14   507.51   381.374   2.62804    381.90   2.63   False
   91.43823    137.69    136.66   508.25   377.217   2.61377    375.19   2.61   False
   91.53823    126.90    125.95   508.98   366.119   2.57435    364.95   2.57   False
   91.63823    115.23    114.33   509.72   354.326   2.53362    349.95   2.52   False
   91.73823    103.98    103.12   510.46   346.436   2.50463    347.13   2.51   False
   91.83823     94.15     93.32   511.20   339.226   2.47994    340.20   2.48   False
   91.93823     86.22     85.40   511.94   333.918   2.45907    332.88   2.46   False
   92.03823     80.21     79.39   512.67   327.934   2.43671    328.81   2.44   False
   92.13823     75.82     75.01   513.41   331.846   2.45147    323.96   2.42   False
   92.23823     72.62     71.82   514.15   322.956   2.41896    325.35   2.43   False
   92.33823     70.19     69.42   514.89   319.098   2.40332    318.54   2.40   False
   92.43823     68.25     67.51   515.62   317.467   2.18378    316.28   2.18   False
   92.53823     66.68     66.00   516.36   311.674    1.9238    312.12   1.93   False
   92.63823     65.59     64.97   517.10   313.511    1.9303    314.43   1.93   False
   92.73823     65.17     64.61   517.84   311.997   1.92613    310.12   1.92   False
   92.83823     65.65     65.16   518.58   312.639   1.92734    311.38   1.92   False
   92.93823     67.23     66.79   519.31   308.219   1.91403    312.28   1.93   False
   93.03823     70.02     69.61   520.05    316.22   1.93876    314.06   1.93   False
   93.13823     74.04     73.64   520.79   316.898   2.15877    316.79   2.16   False
   93.23823     79.27     78.86   521.53   327.737   2.39384    320.27   2.37   False
   93.33823     85.70     85.25   522.26   324.605   2.38352    333.43   2.41   False
   93.43823     93.33     92.80   523.00   336.374   2.42454    334.83   2.42   False
   93.53823    102.24    101.60   523.74   350.671    2.4751    347.00   2.46   False
   93.63823    112.54    111.73   524.48   363.117   2.51879    359.29   2.51   False
   93.73823    124.33    123.33   525.22   380.647   2.57913    372.88   2.55   False
   93.83823    137.64    136.42   525.95   398.795   2.63912    395.62   2.63   False
   93.93823    152.29    150.83   526.69   422.273   2.71582    411.48   2.68   False
   94.03823    167.81    166.11   527.43    437.26    2.7636    436.26   2.76   False
   94.13823    183.40    181.47   528.17   464.215   2.84778    462.06   2.84   False
   94.23823    197.91    195.78   528.90   481.167   2.89817    484.77   2.91   False
   94.33823    209.97    207.68   529.64   498.441   2.95163    494.97   2.94   False
   94.43823    218.15    215.76   530.38   514.002   2.99701    502.10   2.96   False
   94.53823    221.23    218.81   531.12   505.361    2.9722    505.24   2.97   False
   94.63823    218.46    216.09   531.86   499.637    2.9539    498.62   2.95   False
   94.73823    209.84    207.59   532.59   487.654    2.9181    484.05   2.91   False
   94.83823    196.19    194.12   533.33   472.006   2.87126    468.47   2.86   False
   94.93823    179.10    177.25   534.07   443.726   2.78435    442.31   2.78   False
   95.03823    160.58    158.96   534.81   421.265   2.71333    421.67   2.72   False
   95.13823    142.63    141.24   535.54   401.655   2.15233    400.66   2.15   False
   95.23823    126.85    125.67   536.28   386.836   2.11209    385.98   2.11   False
   95.33823    114.27    113.25   537.02   367.039   2.05819    370.97   2.07   False
   95.43823    105.25    104.36   537.76   360.833   2.04105    358.90   2.03   False
   95.53823     99.69     98.89   538.50   354.116   2.02108    350.32   2.01   False
   95.63823     97.13     96.38   539.23   345.811   1.99724    345.96   2.00   False
   95.73823     96.91     96.17   539.97   344.943   1.99512    348.39   2.01   False
   95.83823     98.29     97.56   540.71   344.871   2.43235    344.77   2.43   False
   95.93823    100.58     99.83   541.45   350.342   2.45151    350.83   2.45   False
   96.03823    103.11    102.34   542.18   350.023   2.45101    350.53   2.45   False
   96.13823    105.34    104.53   542.92   355.505   2.46932    355.21   2.47   False
   96.23823    106.85    106.01   543.66   361.324   2.48882    358.86   2.48   False
   96.33823    107.36    106.50   544.40   362.666    2.4931    361.08   2.49   False
   96.43823    106.77    105.91   545.14   359.905   2.48476    359.39   2.48   False
   96.53823    105.14    104.28   545.87   364.453   2.49831    363.30   2.50   False
   96.63823    102.72    101.88   546.61   366.896   2.50887    360.44   2.49   False
   96.73823     99.91     99.11   547.35   364.404    2.4985    359.83   2.48   False
   96.83823     97.29     96.55   548.09    362.29   2.49104    362.57   2.49   False
   96.93823     95.49     94.81   548.82   357.934   2.47695    361.17   2.49   False
   97.03823     95.12     94.51   549.56   359.593   2.48356    358.04   2.48   False
   97.13823     96.65     96.10   550.30   353.321   2.46099    356.68   2.47   False
   97.23823    100.36     99.85   551.04   358.432   2.47998    357.61   2.48   False
   97.33823    106.32    105.83   551.78   359.155   2.48012    362.92   2.49   False
   97.43823    114.38    113.90   552.51   365.119   2.50216    366.35   2.51   False
   97.53823    124.24    123.74   553.25   371.793   2.52407    377.74   2.55   False
   97.63823    135.47    134.94   553.99   382.261   2.55878    378.72   2.55   False
   97.73823    147.56    146.98   554.73   393.661   2.59872    393.12   2.60   False
   97.83823    159.96    159.31   555.46   406.566   2.41359    401.75   2.40   False
   97.93823    172.10    171.37   556.20    418.97   2.20166    416.16   2.19   False
   98.03823    183.45    182.64   556.94   432.795   2.23832    431.45   2.23   False
   98.13823    193.56    192.66   557.68   443.402   2.26565    435.84   2.24   False
   98.23823    202.02    201.04   558.42   459.291   2.30581    451.07   2.28   False
   98.33823    208.48    207.44   559.15   464.775   2.31933    463.47   2.32   False
   98.43823    212.67    211.57   559.89   465.512   2.32173    461.72   2.31   False
   98.53823    214.37    213.25   560.63    473.83   2.87144    474.70   2.88   False
   98.63823    213.47    212.35   561.37   477.889   2.88588    473.71   2.87   False
   98.73823    210.01    208.92   562.11   473.867   2.87414    473.61   2.87   False
   98.83823    204.15    203.13   562.84   463.154   2.83952    460.56   2.83   False
   98.93823    196.17    195.23   563.58   454.723   2.81342    455.04   2.81   False
   99.03823    186.41    185.59   564.32   442.852   2.77625    444.23   2.78   False
   99.13823    175.29    174.59   565.06   440.518   2.76946    432.82   2.75   False
   99.23823    163.26    162.69   565.79   428.767   2.73194    426.52   2.73   False
   99.33823    150.89    150.45   566.53   422.691    2.7109    417.23   2.70   False
   99.43823    138.77    138.45   567.27   415.981   2.69132    415.40   2.69   False
   99.53823    127.53    127.31   568.01   413.788   2.68394    407.16   2.66   False
   99.63823    117.68    117.55   568.75   413.994   2.68297    413.95   2.68   False
   99.73823    109.58    109.54   569.48   410.169   2.67224    405.85   2.66   False
   99.83823    103.42    103.43   570.22    409.82   2.67166    401.44   2.64   False
   99.93823     99.17     99.22   570.96   407.092   2.66226    406.74   2.66   False
  100.03823     96.64     96.73   571.70   404.363   2.65278    403.61   2.65   False
  100.13823     95.55     95.67   572.43   403.632   2.64929    400.28   2.64   False
  100.23823     95.52     95.65   572.76   398.924   2.63484    399.68   2.64   False
  100.33823     96.15     96.29   572.67   400.383   2.64016    400.98   2.64   False
  100.43823     97.04     97.19   572.59   402.043    2.6464    403.75   2.65   False
  100.53823     97.85     98.00   572.50   403.969   2.18018    403.16   2.18   False
  100.63823     98.31     98.45   572.42   402.164   2.17517    403.70   2.18   False
  100.73823     98.26     98.37   572.33   402.291   2.17678    400.26   2.17   False
  100.83823     97.64     97.73   572.25   398.051   2.16592    399.96   2.17   False
  100.93823     96.57     96.61   572.16   393.773   2.15267    390.65   2.14   False
  101.03823     95.24     95.24   572.08   395.082   2.15618    396.48   2.16   False
  101.13823     93.99     93.92   571.99   392.857   2.41904    395.40   2.43   False
  101.23823     93.14     93.00   571.91   392.702   2.66088    391.23   2.66   False
  101.33823     93.05     92.82   571.82   389.869   2.65119    387.76   2.64   False
  101.43823     93.96     93.64   571.73   390.698   2.65468    387.93   2.64   False
  101.53823     96.06     95.64   571.65   396.753    2.6743    394.54   2.67   False
  101.63823     99.43     98.89   571.56   400.333   2.68565    404.59   2.70   False
  101.73823    104.08    103.40   571.48   409.118   2.71457    408.39   2.71   False
  101.83823    109.94    109.11   571.39   417.949   2.74503    419.78   2.75   False
  101.93823    116.92    115.94   571.31   422.445   2.75743    428.32   2.78   False
  102.03823    124.89    123.74   571.22   429.876   2.78402    429.62   2.78   False
  102.13823    133.71    132.39   571.14   434.522   2.79697    438.72   2.81   False
  102.23823    143.22    141.73   571.05   446.903    2.8363    441.95   2.82   False
  102.33823    153.23    151.57   570.97   452.734   2.85581    449.71   2.85   False
  102.43823    163.53    161.70   570.88   453.614    2.8596    460.20   2.88   False
  102.53823    173.87    171.88   570.79   465.084   2.89459    465.07   2.90   False
  102.63823    183.96    181.81   570.71   470.527   2.91294    467.24   2.90   False
  102.73823    193.45    191.16   570.62   481.118   2.94274    479.44   2.94   False
  102.83823    201.94    199.53   570.54   483.927   2.95313    485.83   2.96   False
  102.93823    209.04    206.53   570.45   505.275   3.01653    495.91   2.99   False
  103.03823    214.38    211.81   570.37   509.996    3.0299    506.40   3.02   False
  103.13823    217.73    215.11   570.28   514.562   3.04586    515.51   3.05   False
  103.23823    218.96    216.34   570.20    519.94   2.79662    518.15   2.79   False
  103.33823    218.14    215.53   570.11   523.957   2.51574    510.98   2.48   False
  103.43823    215.47    212.90   570.03   516.704   2.49898    514.00   2.49   False
  103.53823    211.26    208.76   569.94   510.115   2.48308    494.85   2.44   False
  103.63823    205.85    203.44   569.85    496.28    2.4491    495.11   2.45   False
  103.73823    199.55    197.22   569.77   485.653   2.42252    482.56   2.42   False
  103.83823    192.55    190.32   569.68   474.221   2.39441    465.25   2.37   False
  103.93823    184.94    182.83   569.60   457.312   2.89126    459.53   2.90   False
  104.03823    176.72    174.72   569.51   443.861    2.8506    448.58   2.87   False
  104.13823    167.83    165.96   569.43    435.91   2.82535    434.54   2.82   False
  104.23823    158.25    156.51   569.34   421.669    2.7769    421.78   2.78   False
  104.33823    148.04    146.43   569.26   409.819   2.73748    405.65   2.72   False
  104.43823    137.40    135.94   569.17   403.175     2.715    400.79   2.71   False
  104.53823    126.65    125.34   569.09   390.308   2.67184    387.56   2.66   False
  104.63823    116.21    115.05   569.00   377.726   2.62811    375.97   2.62   False
  104.73823    106.53    105.51   568.91   370.555   2.60149    369.61   2.60   False
  104.83823     98.01     97.14   568.83   366.082   2.58769    362.64   2.58   False
  104.93823     90.98     90.24   568.74    358.69   2.56116    359.09   2.56   False
  105.03823     85.65     85.03   568.66   353.975   2.54271    349.19   2.53   False
  105.13823     82.13     81.63   568.57   347.366   2.52046    347.78   2.52   False
  105.23823     80.44     80.06   568.49   349.126   2.52738    350.72   2.53   False
  105.33823     80.52     80.24   568.40   346.566   2.51763    347.00   2.52   False
  105.43823     82.24     82.08   568.32   346.109   2.51545    350.57   2.53   False
  105.53823     85.45     85.40   568.23   347.269   2.51862    348.79   2.53   False
  105.63823     89.93     90.00   568.15   350.022   2.52956    351.65   2.54   False
  105.73823     95.46     95.65   568.06   353.732   2.54345    357.55   2.56   False
  105.83823    101.76    102.08   567.97   364.972    2.5843    367.80   2.59   False
  105.93823    108.54    108.99   567.89   370.978   2.36971    372.42   2.38   False
  106.03823    115.47    116.05   567.80   382.714   2.14903    381.78   2.15   False
  106.13823    122.22    122.93   567.72   390.357    2.1717    390.19   2.17   False
  106.23823    128.44    129.28   567.63   399.496   2.19779    403.27   2.21   False
  106.33823    133.78    134.74   567.55   405.979   2.21384    414.14   2.24   False
  106.43823    137.95    139.01   567.46   419.033   2.24945    421.22   2.26   False
  106.53823    140.68    141.83   567.38   431.256   2.55489    429.89   2.55   False
  106.63823    141.80    143.01   567.29   436.205   2.80786    432.95   2.80   False
  106.73823    141.24    142.49   567.21    435.59   2.80774    434.53   2.80   False
  106.83823    139.04    140.30   567.12   436.245   2.81121    440.99   2.82   False
  106.93823    135.36    136.61   567.03    435.07   2.80533    440.18   2.82   False
  107.03823    130.46    131.69   566.95   424.436   2.77037    436.42   2.81   False
  107.13823    124.68    125.87   566.86   429.045   2.78554    426.35   2.78   False
  107.23823    118.40    119.54   566.78   420.097   2.75659    423.42   2.77   False
  107.33823    112.00    113.08   566.69   416.826   2.74507    418.84   2.75   False
  107.43823    105.81    106.83   566.61   411.071   2.72615    409.87   2.72   False
  107.53823    100.11    101.07   566.52   399.973   2.68911    404.52   2.71   False
  107.63823     95.08     96.00   566.44   393.851   2.66872    389.33   2.65   False
  107.73823     90.83     91.70   566.35   387.248   2.64519    384.38   2.64   False
  107.83823     87.36     88.20   566.26   380.904   2.62511    377.84   2.61   False
  107.93823     84.61     85.43   566.18   369.584   2.58552    372.54   2.60   False
  108.03823     82.48     83.28   566.09    375.39   2.60619    374.57   2.60   False
  108.13823     80.85     81.65   566.01   365.794   2.57143    367.11   2.58   False
  108.23823     79.62     80.41   565.92   366.185   2.57265    369.61   2.58   False
  108.33823     78.69     79.47   565.84   366.239   2.57316    364.30   2.57   False
  108.43823     78.01     78.78   565.75   360.695   2.55402    361.89   2.56   False
  108.53823     77.55     78.32   565.67   353.798   2.52985    357.75   2.54   False
  108.63823     77.31     78.07   565.58    357.65   2.33723    356.21   2.33   False
  108.73823     77.29     78.04   565.50   356.932   2.11188    355.68   2.11   False
  108.83823     77.49     78.22   565.41   357.363   2.11409    356.64   2.11   False
  108.93823     77.88     78.59   565.32   355.593   2.10935    354.84   2.11   False
  109.03823     78.43     79.12   565.24   354.432   2.10491    353.84   2.10   False
  109.13823     79.08     79.74   565.15   352.834    2.1005    354.42   2.11   False
  109.23823     79.74     80.38   565.07   348.268    2.0875    351.92   2.10   False
  109.33823     80.34     80.94   564.98   347.422   2.56619    357.43   2.61   False
  109.43823     80.76     81.32   564.90   345.808    2.5619    348.91   2.57   False
  109.53823     80.91     81.43   564.81   352.297   2.58707    348.94   2.57   False
  109.63823     80.69     81.17   564.73   348.358   2.57064    351.17   2.58   False
  109.73823     80.04     80.46   564.64   345.452   2.55947    349.81   2.58   False
  109.83823     78.90     79.27   564.56    343.71   2.55316    343.36   2.55   False
  109.93823     77.26     77.58   564.47   344.306   2.55561    343.63   2.55   False
  110.03823     75.18     75.44   564.38   342.543   2.54835    344.07   2.56   False
  110.13823     72.72     72.93   564.30    342.11   2.54683    345.27   2.56   False
  110.23823     70.01     70.16   564.21   346.226   2.56211    346.49   2.56   False
  110.33823     67.21     67.31   564.13   342.787   2.54961    344.29   2.56   False
  110.43823     64.49     64.55   564.04   337.967   2.53061    347.25   2.57   False
  110.53823     62.03     62.04   563.96   339.348    2.5374    341.36   2.54   False
  110.63823     59.99     59.96   563.87   345.112   2.55856    348.59   2.57   False
  110.73823     58.52     58.47   563.79    348.81   2.57265    347.90   2.57   False
  110.83823     57.77     57.69   563.70   343.912   2.55332    350.92   2.58   False
  110.93823     57.83     57.73   563.62   347.624   2.56691    351.69   2.58   False
  111.03823     58.81     58.70   563.53   351.386   2.58107    352.21   2.59   False
  111.13823     60.78     60.67   563.44    351.86   2.58323    349.25   2.57   False
  111.23823     63.81     63.69   563.36   357.581   2.60454    352.14   2.59   False
  111.33823     67.93     67.82   563.27   363.283   2.42372    358.85   2.41   False
  111.43823     73.17     73.06   563.19   362.665   2.20218    363.17   2.20   False
  111.53823     79.50     79.40   563.10   365.021    2.2103    373.64   2.24   False
  111.63823     86.90     86.80   563.02   373.027   2.23494    371.83   2.23   False
  111.73823     95.26     95.16   562.93   380.512   2.25618    382.08   2.26   False
  111.83823    104.44    104.34   562.85   389.734   2.28372    385.87   2.27   False
  111.93823    114.26    114.17   562.76   396.769   2.30497    396.13   2.30   False
  112.03823    124.49    124.40   562.68   410.536    2.9665    412.05   2.97   False
  112.13823    134.85    134.76   562.59   419.936   3.00222    424.21   3.02   False
  112.23823    145.04    144.95   562.50   430.695    3.0419    434.74   3.05   False
  112.33823    154.74    154.65   562.42   440.156   3.07283    439.29   3.07   False
  112.43823    163.62    163.53   562.33    449.85   3.10596    443.32   3.08   False
  112.53823    171.37    171.28   562.25   459.748   3.14013    461.57   3.15   False
  112.63823    177.75    177.66   562.16    470.26   3.17613    474.24   3.19   False
  112.73823    182.54    182.45   562.08   477.107   3.19824    472.10   3.18   False
  112.83823    185.66    185.56   561.99    478.78   3.20399    479.69   3.21   False
  112.93823    187.10    186.99   561.91   478.008   3.20141    489.99   3.24   False
  113.03823    186.98    186.87   561.82   483.915   3.22145    489.70   3.24   False
  113.13823    185.58    185.45   561.74   487.733   3.23286    482.96   3.22   False
  113.23823    183.26    183.11   561.65   481.556   3.21438    482.55   3.22    True
  113.33823    180.53    180.34   561.56   482.067   3.21571    480.74   3.21    True
  113.43823    177.91    177.68   561.48   470.186   3.17635    476.93   3.20    True
  113.53823    176.01    175.72   561.39   473.622   3.18643    472.50   3.18    True
  113.63823    175.37    175.01   561.31   465.184   3.15773    469.39   3.17    True
  113.73823    176.46    176.03   561.22    458.91   3.13675    465.50   3.16    True
  113.83823    179.66    179.14   561.14   462.445   3.14931    464.10   3.15    True
  113.93823    185.19    184.56   561.05   463.489   3.15336    467.53   3.17    True
  114.03823    193.11    192.37   560.97    473.48   2.53594    478.88   2.55    True
  114.13823    203.32    202.46   560.88   485.987   2.56903    485.57   2.57    True
  114.23823    215.57    214.58   560.80   498.809    2.6038    497.45   2.60    True
  114.33823    229.48    228.36   560.71   522.644   2.66572    510.16   2.63    True
  114.43823    244.54    243.28   560.62   533.896   2.69308    534.83   2.70    True
  114.53823    260.15    258.75   560.54   558.974   2.75561    553.21   2.74    True
  114.63823    275.67    274.15   560.45   582.485   2.81351    577.47   2.80    True
  114.73823    290.43    288.79   560.37   603.341   3.51279    606.47   3.52    True
  114.83823    303.77    302.03   560.28   632.751   3.59727    632.49   3.60    True
  114.93823    315.09    313.25   560.20   656.307   3.66458    654.16   3.66    True
  115.03823    323.85    321.94   560.11   665.953   3.69018    666.22   3.69    True
  115.13823    329.66    327.70   560.03   667.598    3.6938    680.05   3.73    True
  115.23823    332.26    330.28   559.94   671.831     3.705    670.98   3.70    True
  115.33823    331.56    329.58   559.86   671.528   3.70592    670.05   3.70    True
  115.43823    327.66    325.69   559.77   665.637   3.68651    665.12   3.69    True
  115.53823    320.82    318.90   559.68   650.934   3.64876    654.61   3.66    True
  115.63823    311.46    309.60   559.60   637.993   3.60967    635.21   3.60    True
  115.73823    300.14    298.36   559.51   618.248   3.55309    618.07   3.56    True
  115.83823    287.50    285.80   559.43   597.112   3.49314    597.37   3.49    True
  115.93823    274.25    272.64   559.34    582.73   3.45204    581.04   3.45    True
  116.03823    261.11    259.60   559.26    575.88   3.43053    568.15   3.41    True
  116.13823    248.79    247.37   559.17   558.671   3.38061    552.40   3.36    True
  116.23823    237.97    236.64   559.09   535.145   3.30551    537.63   3.31    True
  116.33823    229.25    228.00   559.00    532.25   3.29859    533.14   3.30    True
  116.43823    223.12    221.94   558.91   525.326   3.27594    523.73   3.27    True
  116.53823    219.98    218.85   558.83   525.089   3.27446    526.45   3.28    True
  116.63823    220.06    218.97   558.74   528.195   3.28675    520.28   3.26    True
  116.73823    223.48    222.41   558.66   534.322   3.00139    526.94   2.98    True
  116.83823    230.21    229.15   558.57   534.196   2.66659    536.49   2.67    True
  116.93823    240.09    239.03   558.49   543.898   2.69148    546.20   2.70    True
  117.03823    252.83    251.76   558.40   559.808   2.73064    555.81   2.72    True
  117.13823    268.05    266.97   558.32   570.853   2.75736    563.10   2.74    True
  117.23823    285.28    284.19   558.23   582.665   2.78548    582.05   2.78   False
  117.33823    304.00    302.90   558.15   600.433   2.82833    594.61   2.81   False
  117.43823    323.64    322.52   558.06   615.968   3.40569    617.00   3.41   False
  117.53823    343.60    342.47   557.97     637.8    3.4681    634.68   3.46   False
  117.63823    363.28    362.16   557.89   654.975   3.51503    650.48   3.50   False
  117.73823    382.13    381.02   557.80   672.843   3.56022    680.53   3.58   False
  117.83823    399.62    398.53   557.72   702.447   3.63752    687.59   3.60   False
  117.93823    415.28    414.21   557.63   706.352   3.64734    712.00   3.66   False
  118.03823    428.72    427.69   557.55   732.508   3.71497    726.13   3.70   False
  118.13823    439.65    438.65   557.46   742.129   3.73884    744.70   3.75   False
  118.23823    447.87    446.91   557.38    749.32   3.75468    749.46   3.76   False
  118.33823    453.31    452.39   557.29    759.66   3.78334    756.78   3.78   False
  118.43823    456.02    455.14   557.21   759.969    3.7837    755.13   3.77   False
  118.53823    456.18    455.32   557.12   763.933   3.79125    760.76   3.79   False
  118.63823    454.09    453.25   557.03   763.621   3.79287    763.41   3.79   False
  118.73823    450.17    449.33   556.95   761.501   3.78842    763.30   3.79   False
  118.83823    444.94    444.09   556.86   749.065   3.75666    752.60   3.77   False
  118.93823    438.98    438.10   556.78   749.541   3.75706    740.12   3.73   False
  119.03823    432.90    431.97   556.69   733.237   3.71446    737.39   3.73   False
  119.13823    427.28    426.30   556.61   750.955   3.76052    739.86   3.73   False
  119.23823    422.66    421.60   556.52   743.539   3.74267    736.31   3.73   False
  119.33823    419.46    418.30   556.44   741.878   3.73957    739.97   3.73   False
  119.43823    417.97    416.70   556.35   746.695    3.4242    737.70   3.40   False
  119.53823    418.30    416.93   556.27   747.635   3.06789    746.72   3.07   False
  119.63823    420.43    418.94   556.18   752.881   3.08051    751.99   3.08   False
  119.73823    424.15    422.55   556.09   762.795   3.10187    757.20   3.09   False
  119.83823    429.13    427.42   556.01   759.369   3.09252    762.51   3.10   False
  119.93823    434.92    433.12   555.92   771.541   3.11762    767.84   3.11   False
  120.03823    441.00    439.12   555.84   781.106   3.52494    769.22   3.49   False
  120.13823    446.82    444.88   555.75   769.726   3.83224    771.88   3.84   False
  120.23823    451.81    449.82   555.67   776.038   3.85042    768.86   3.83   False
  120.33823    455.44    453.43   555.58   773.462   3.84588    765.92   3.82   False
  120.43823    457.26    455.27   555.50   757.757   3.80379    756.43   3.80   False
  120.53823    456.92    454.96   555.41   752.655   3.79033    750.95   3.79   False
  120.63823    454.18    452.27   555.33   737.531   3.75228    741.26   3.76   False
  120.73823    448.90    447.08   555.24   724.623   3.71964    720.82   3.71   False
  120.83823    441.10    439.39   555.15   708.835   3.67786    705.36   3.67   False
  120.93823    430.88    429.29   555.07   693.568   3.63819    696.38   3.65   False
  121.03823    418.45    417.00   554.98   687.503   3.62225    673.35   3.59   False
  121.13823    404.08    402.78   554.90    673.44   3.58537    669.71   3.58   False
  121.23823    388.09    386.94   554.81   657.223   3.54053    652.53   3.53   False
  121.33823    370.79    369.79   554.73   656.439   3.54067    638.76   3.49   False
  121.43823    352.54    351.69   554.64   633.054   3.47664    637.69   3.49   False
  121.53823    333.66    332.95   554.56   625.411   3.45616    625.77   3.46   False
  121.63823    314.46    313.89   554.47    607.11   3.40359    611.14   3.42   False
  121.73823    295.25    294.79   554.39   600.057   3.38357    591.14   3.36   False
  121.83823    276.32    275.96   554.30   581.617   3.33158    585.26   3.34   False
  121.93823    257.92    257.64   554.21   580.695   3.32947    572.18   3.30   False
  122.03823    240.30    240.09   554.13   558.879    3.2668    557.98   3.27   False
  122.13823    223.69    223.52   554.04   514.803   2.61551    514.28   2.61   False
  122.23823    208.29    208.14   553.96   501.697   2.58182    503.82   2.59   False
  122.33823    194.24    194.11   553.87   490.213   2.55316    489.10   2.55   False
  122.43823    181.68    181.53   553.79    478.23   2.52218    479.83   2.52   False
  122.53823    170.66    170.50   553.70     465.0   2.48596    466.53   2.49   False
  122.63823    161.21    161.01   553.62   458.172   2.46764    456.99   2.46   False
  122.73823    153.31    153.07   553.53   451.104   2.44901    451.13   2.45   False
  122.83823    146.88    146.58   553.45   433.512   2.97331    431.08   2.97   False
  122.93823    141.82    141.46   553.36   424.657    2.9427    425.27   2.95   False
  123.03823    137.99    137.57   553.27   419.577   2.92582    424.53   2.94   False
  123.13823    135.23    134.75   553.19    409.84   2.89072    411.26   2.90   False
  123.23823    133.39    132.85   553.10   419.778    2.9248    405.82   2.87   False
  123.33823    132.28    131.67   553.02   412.473   2.89885    408.67   2.89   False
  123.43823    131.74    131.07   552.93   406.234    2.8782    410.95   2.89   False
  123.53823    131.59    130.87   552.85   411.618   2.89478    406.85   2.88   False
  123.63823    131.69    130.91   552.76   405.652   2.87625    405.14   2.87   False
  123.73823    131.88    131.07   552.68    405.75   2.87448    399.98   2.86   False
  123.83823    132.06    131.21   552.59   405.155   2.87214    405.24   2.87   False
  123.93823    132.10    131.23   552.50   409.616     2.889    402.16   2.86   False
  124.03823    131.93    131.04   552.42   407.456   2.88238    404.96   2.87   False
  124.13823    131.45    130.56   552.33   402.053   2.86226    408.16   2.88   False
  124.23823    130.63    129.75   552.25   407.459    2.8829    401.32   2.86   False
  124.33823    129.42    128.55   552.16   403.669   2.86672    405.06   2.87   False
  124.43823    127.81    126.96   552.08    407.57   2.88232    407.21   2.88   False
  124.53823    125.79    124.98   551.99    401.77   2.86075    401.69   2.86   False
  124.63823    123.37    122.60   551.91   391.714   2.82409    399.79   2.85   False
  124.73823    120.59    119.87   551.82   397.743   2.84801    403.35   2.87   False
  124.83823    117.48    116.81   551.74   394.277   2.83418    393.66   2.83   False
  124.93823    114.09    113.48   551.65    393.22   2.83068    388.15   2.81   False
  125.03823    110.48    109.93   551.56   387.655   2.81153    382.56   2.79   False
  125.13823    106.71    106.21   551.48    387.73   2.81111    379.79   2.78   False

loop_phase1
_pd_peak_index_h
_pd_peak_index_k
_pd_peak_index_l
_pd_peak_2theta
_pd_peak_intensity_plus
_pd_peak_intensity_minus
  0    0    1    20.12     7.65     7.65
  0    1    0    24.89     0.32     0.32
  1    0    0    26.99    29.47    29.47
  1    0   -1    29.43    71.46    71.46
  0    1   -1    31.53   100.85   100.85
  0    1    1    32.88   133.58   133.58
  1   -1    0    34.41    45.29    45.29
  1   -1   -1    37.01    21.65    21.65
  1    0    1    37.89     9.66     9.66
  1    1    0    39.52   203.10   203.10
  1    1   -1    40.75    55.17    55.17
  0    0    2    40.91   151.98   151.98
  1   -1    1    43.16     0.69     0.69
  1    0   -2    43.23     1.30     1.30
  0    1   -2    47.50    49.57    49.57
  1    1    1    48.45    16.04    16.04
  0    1    2    49.44    17.38    17.38
  1   -1   -2    49.46    26.10    26.10
  0    2    0    51.06     3.83     3.83
  1    1   -2    51.57    27.20    27.20
  2    0   -1    54.19    28.33    28.33
  0    2   -1    54.55     3.28     3.28
  1   -2    0    55.03    14.53    14.53
  1    0    2    55.59     5.86     5.86
  2    0    0    55.64    11.15    11.15
  0    2    1    56.30    15.47    15.47
  1   -2   -1    57.29     7.80     7.80
  2   -1   -1    57.35     0.58     0.58
  2   -1    0    58.32    40.05    40.05
  1   -1    2    59.22    24.09    24.09
  1   -2    1    61.06     1.62     1.62
  2    0   -2    61.08     0.05     0.05
  1    2    0    62.23    14.15    14.15
  1    0   -3    62.34    16.73    16.73
  1    2   -1    62.72     0.14     0.14
  0    0    3    63.22    27.30    27.30
  2    1   -1    63.58    34.09    34.09
  1    1    2    64.35     0.08     0.08
  2   -1   -2    64.42    53.12    53.12
  2    0    1    65.06     5.33     5.33
  2    1    0    65.30    62.88    62.88
  0    2   -2    65.83     7.65     7.65
  2   -1    1    67.13    37.74    37.74
  1   -2   -2    67.33    22.07    22.07
  1   -1   -3    67.71     2.75     2.75
  0    1   -3    67.88    94.68    94.68
  1    1   -3    68.69     1.20     1.20
  0    2    2    68.96    25.89    25.89
  1    2    1    69.42     7.77     7.77
  2    1   -2    69.53     7.89     7.89
  0    1    3    70.20    23.42    23.42
  1    2   -2    70.81    30.10    30.10
  2   -2   -1    72.05   163.62   163.62
  2   -2    0    72.54    77.11    77.11
  1   -2    2    74.19     0.23     0.23
  2    1    1    74.40     0.01     0.01
  2    0   -3    74.92     0.00     0.00
  1    0    3    77.34     2.15     2.15
  2   -1   -3    78.35     7.97     7.97
  2   -2   -2    78.81     9.93     9.93
  1   -1    3    80.10     4.61     4.61
  2   -2    1    80.21    54.35    54.35
  0    3    0    80.56     1.50     1.50
  2    0    2    80.98    13.70    13.70
  1   -3    0    82.21    16.38    16.38
  2    1   -3    82.38     0.22     0.22
  2   -1    2    82.52     0.14     0.14
  0    3   -1    82.99     6.84     6.84
  2    2   -1    83.17     0.09     0.09
  0    2   -3    83.29     4.82     4.82
  1    2    2    83.41     8.41     8.41
  1   -2   -3    83.77    17.81    17.81
  1   -3   -1    84.46    20.98    20.98
  2    2    0    85.08     0.31     0.31
  0    3    1    85.17     4.38     4.38
  3    0   -1    85.33     2.15     2.15
  1    1    3    85.39     1.36     1.36
  1    0   -4    85.54     4.13     4.13
  1    2   -3    85.58    20.50    20.50
  3   -1   -1    86.41    55.16    55.16
  1   -3    1    86.98     0.14     0.14
  0    2    3    87.64     0.13     0.13
  2    2   -2    88.27    13.64    13.64
  0    0    4    88.67     0.06     0.06
  3    0   -2    88.80     1.28     1.28
  3    0    0    88.86     6.16     6.16
  3   -1    0    89.57     6.96     6.96
  2    1    2    90.13     7.61     7.61
  3   -1   -2    90.24     5.26     5.26
  1   -1   -4    90.78     9.13     9.13
  1    1   -4    90.96     1.94     1.94
  1    3    0    91.44    27.89    27.89
  1    3   -1    91.52     8.63     8.63
  2   -2   -3    92.41     0.03     0.03
  0    3   -2    92.42     0.01     0.01
  0    1   -4    92.55     6.21     6.21
  1   -2    3    93.50     0.81     0.81
  1   -3   -2    93.71     7.59     7.59
  2    2    1    94.00     4.21     4.21
  2   -2    2    94.72    25.39    25.39
  3    1   -1    94.90    39.61    39.61
  2    0   -4    94.91     4.91     4.91
  0    1    4    95.45     0.11     0.11
  2   -3   -1    96.25     1.05     1.05
  2   -3    0    96.35     4.02     4.02
  0    3    2    96.78    18.51    18.51
  3    1   -2    98.03     6.31     6.31
  3   -2   -1    98.16     7.91     7.91
  1    3    1    98.40     7.51     7.51
  1    3   -2    98.62     2.15     2.15
  2   -1   -4    98.63     4.88     4.88
  1   -3    2    98.77    24.35    24.35
  3    1    0    98.82     3.86     3.86
  3    0   -3    99.31    31.84    31.84
  3    0    1    99.42     3.94     3.94
  3   -1    1    99.78     3.31     3.31
  2    2   -3   100.41     0.22     0.22
  3   -2    0   101.00    13.04    13.04
  3   -1   -3   101.14     5.06     5.06
  2    1   -4   101.93     3.49     3.49
  3   -2   -2   102.42    13.37    13.37
  2   -3   -2   103.26    26.70    26.70
  2    0    3   103.31     3.29     3.29
  2   -3    1   103.56    32.40    32.40
  1    2    3   104.12     3.59     3.59
  1    0    4   104.43    24.42    24.42
  2   -1    3   104.51    17.14    17.14
  1   -1    4   106.86     0.02     0.02
  1   -2   -4   106.90    26.24    26.24
  1    2   -4   107.27     7.31     7.31
  0    2   -4   107.33    15.64    15.64
  3    1   -3   108.43    12.57    12.57
  0    3   -3   109.18     4.40     4.40
  3    1    1   110.08    10.39    10.39
  2    2    2   110.31     7.04     7.04
  1   -3   -3   110.37     3.02     3.02
  3   -2    1   111.21     2.89     2.89
  1    3    2   112.89     3.58     3.58
  2    3   -1   113.12     1.96     1.96
  1    1    4   113.21     2.64     2.64
  1    3   -3   113.28    29.01    29.01
  2    1    3   113.30     9.54     9.54
  0    2    4   113.50    23.05    23.05
  2   -2   -4   113.60     6.60     6.60
  3   -2   -3   114.23     1.07     1.07
  1    0   -5   115.52    81.59    81.59
  2    3    0   115.61     2.59     2.59
  3    2   -1   115.99    30.31    30.31
  0    3    3   116.24    49.89    49.89
  2   -2    3   117.17     1.04     1.04
  3    0   -4   117.81    12.23    12.23
  3   -1    2   117.99     0.96     0.96
  3    0    2   118.00    11.28    11.28
  2   -3   -3   118.15     1.26     1.26
  2    3   -2   118.37     2.62     2.62
  1   -3    3   118.66     1.88     1.88
  2   -3    2   118.72    60.72    60.72
  0    4    0   119.08    11.69    11.69
  3    2   -2   119.09   112.36   112.36
  1   -4    0   119.19     2.10     2.10
  3   -1   -4   120.28     3.80     3.80
  3    2    0   120.82    97.12    97.12
  2    2   -4   120.91    15.70    15.70
  1   -2    4   121.10    46.32    46.32
  1    1   -5   121.26     0.46     0.46
  0    4   -1   121.46     7.28     7.28
  0    0    5   121.75     0.03     0.03
  1   -1   -5   121.90    41.04    41.04
  3   -3   -1   122.15    58.85    58.85
  1   -4   -1   122.22     1.76     1.76
  2    0   -5   123.59    10.19    10.19
  1   -4    1   124.36     4.79     4.79
  0    4    1   124.91    16.73    16.73
  3   -3    0   125.08     7.70     7.70
  0    1   -5   125.98     7.27     7.27
  2    3    1   126.44     5.07     5.07
  3   -3   -2   127.71     0.07     0.07
  3    1   -4   127.92     4.76     4.76
  2   -1   -5   128.61     1.36     1.36

loop_phase1
_refln_index_h
_refln_index_k
_refln_index_l
_refln_a_calc
_refln_b_calc
  0    0    1   -0.6781   0.0000
  0    1    0    0.1707   0.0000
  1    0    0    1.7666   0.0000
  1    0   -1    2.9868   0.0000
  0    1   -1   -3.7851   0.0000
  0    1    1    4.5309   0.0000
  1   -1    0   -2.7515   0.0000
  1   -1   -1    2.0339   0.0000
  1    0    1   -1.3881   0.0000
  1    1    0    6.6099   0.0000
  1    1   -1   -3.5412   0.0000
  0    0    2   -5.8969   0.0000
  1   -1    1    0.4163   0.0000
  1    0   -2   -0.5718   0.0000
  0    1   -2    3.8367   0.0000
  1    1    1    2.2192   0.0000
  0    1    2   -2.3497   0.0000
  1   -1   -2    2.8807   0.0000
  0    2    0   -1.1325   0.0000
  1    1   -2   -3.0442   0.0000
  2    0   -1    3.2350   0.0000
  0    2   -1   -1.1062   0.0000
  1   -2    0    2.3450   0.0000
  1    0    2   -1.5020   0.0000
  2    0    0   -2.0729   0.0000
  0    2    1   -2.4644   0.0000
  1   -2   -1    1.7740   0.0000
  2   -1   -1    0.4860   0.0000
  2   -1    0    4.0754   0.0000
  1   -1    2    3.1977   0.0000
  1   -2    1   -0.8487   0.0000
  2    0   -2   -0.1557   0.0000
  1    2    0    2.5434   0.0000
  1    0   -3   -2.7697   0.0000
  1    2   -1    0.2508   0.0000
  0    0    3    3.5744   0.0000
  2    1   -1    4.0105   0.0000
  1    1    2   -0.1950   0.0000
  2   -1   -2   -5.0536   0.0000
  2    0    1    1.6115   0.0000
  2    1    0    5.5514   0.0000
  0    2   -2    1.9472   0.0000
  2   -1    1   -4.3844   0.0000
  1   -2   -2    3.3600   0.0000
  1   -1   -3   -1.1896   0.0000
  0    1   -3    6.9977   0.0000
  1    1   -3    0.7928   0.0000
  0    2    2    3.6983   0.0000
  1    2    1    2.0347   0.0000
  2    1   -2   -2.0527   0.0000
  0    1    3   -3.5596   0.0000
  1    2   -2    4.0581   0.0000
  2   -2   -1    9.5682   0.0000
  2   -2    0   -6.5964   0.0000
  1   -2    2   -0.3667   0.0000
  2    1    1    0.0782   0.0000
  2    0   -3   -0.0486   0.0000
  1    0    3   -1.1457   0.0000
  2   -1   -3    2.2204   0.0000
  2   -2   -2    2.4860   0.0000
  1   -1    3    1.7093   0.0000
  2   -2    1   -5.8738   0.0000
  0    3    0   -0.9794   0.0000
  2    0    2    2.9642   0.0000
  1   -3    0   -3.2664   0.0000
  2    1   -3   -0.3791   0.0000
  2   -1    2    0.3057   0.0000
  0    3   -1   -2.1213   0.0000
  2    2   -1   -0.2476   0.0000
  0    2   -3    1.7830   0.0000
  1    2    2   -2.3575   0.0000
  1   -2   -3    3.4386   0.0000
  1   -3   -1    3.7460   0.0000
  2    2    0   -0.4536   0.0000
  0    3    1    1.7177   0.0000
  3    0   -1   -1.2048   0.0000
  1    1    3    0.9603   0.0000
  1    0   -4   -1.6714   0.0000
  1    2   -3    3.7260   0.0000
  3   -1   -1    6.1392   0.0000
  1   -3    1   -0.3046   0.0000
  0    2    3   -0.3032   0.0000
  2    2   -2    3.0808   0.0000
  0    0    4   -0.1967   0.0000
  3    0   -2    0.9456   0.0000
  3    0    0   -2.0766   0.0000
  3   -1    0    2.2136   0.0000
  2    1    2    2.3211   0.0000
  3   -1   -2    1.9312   0.0000
  1   -1   -4    2.5497   0.0000
  1    1   -4    1.1746   0.0000
  1    3    0    4.4681   0.0000
  1    3   -1   -2.4860   0.0000
  2   -2   -3   -0.1389   0.0000
  0    3   -2   -0.0832   0.0000
  0    1   -4    2.1167   0.0000
  1   -2    3    0.7670   0.0000
  1   -3   -2   -2.3505   0.0000
  2    2    1    1.7519   0.0000
  2   -2    2    4.3144   0.0000
  3    1   -1    5.3921   0.0000
  2    0   -4    1.8978   0.0000
  0    1    4   -0.2802   0.0000
  2   -3   -1    0.8826   0.0000
  2   -3    0   -1.7264   0.0000
  0    3    2    3.7074   0.0000
  3    1   -2   -2.1718   0.0000
  3   -2   -1    2.4328   0.0000
  1    3    1   -2.3714   0.0000
  1    3   -2   -1.2691   0.0000
  2   -1   -4    1.9133   0.0000
  1   -3    2    4.2742   0.0000
  3    1    0   -1.7030   0.0000
  3    0   -3    4.8939   0.0000
  3    0    1   -1.7226   0.0000
  3   -1    1   -1.5788   0.0000
  2    2   -3   -0.4071   0.0000
  3   -2    0   -3.1432   0.0000
  3   -1   -3    1.9581   0.0000
  2    1   -4   -1.6278   0.0000
  3   -2   -2    3.1904   0.0000
  2   -3   -2    4.5140   0.0000
  2    0    3    1.5836   0.0000
  2   -3    1    4.9748   0.0000
  1    2    3    1.6559   0.0000
  1    0    4    4.3234   0.0000
  2   -1    3    3.6221   0.0000
  1   -1    4   -0.1236   0.0000
  1   -2   -4   -4.4914   0.0000
  1    2   -4   -2.3704   0.0000
  0    2   -4   -3.4684   0.0000
  3    1   -3   -3.1105   0.0000
  0    3   -3   -1.8408   0.0000
  3    1    1   -2.8277   0.0000
  2    2    2   -2.3282   0.0000
  1   -3   -3    1.5236   0.0000
  3   -2    1    1.4901   0.0000
  1    3    2    1.6589   0.0000
  2    3   -1   -1.2261   0.0000
  1    1    4   -1.4231   0.0000
  1    3   -3    4.7181   0.0000
  2    1    3   -2.7051   0.0000
  0    2    4   -4.2046   0.0000
  2   -2   -4    2.2488   0.0000
  3   -2   -3   -0.9053   0.0000
  1    0   -5    7.8916   0.0000
  2    3    0    1.4062   0.0000
  3    2   -1    4.8063   0.0000
  0    3    3    6.1641   0.0000
  2   -2    3   -0.8895   0.0000
  3    0   -4    3.0430   0.0000
  3   -1    2   -0.8544   0.0000
  3    0    2    2.9214   0.0000
  2   -3   -3    0.9745   0.0000
  2    3   -2   -1.4077   0.0000
  1   -3    3    1.1926   0.0000
  2   -3    2    6.7685   0.0000
  0    4    0    2.9677   0.0000
  3    2   -2   -9.1999   0.0000
  1   -4    0   -1.2561   0.0000
  3   -1   -4   -1.6861   0.0000
  3    2    0    8.5162   0.0000
  2    2   -4    3.4237   0.0000
  1   -2    4    5.8768   0.0000
  1    1   -5    0.5830   0.0000
  0    4   -1    2.3279   0.0000
  0    0    5    0.1472   0.0000
  1   -1   -5    5.5187   0.0000
  3   -3   -1   -6.6037   0.0000
  1   -4   -1    1.1423   0.0000
  2    0   -5   -2.7346   0.0000
  1   -4    1    1.8702   0.0000
  0    4    1    3.4877   0.0000
  3   -3    0    2.3645   0.0000
  0    1   -5   -2.2896   0.0000
  2    3    1    1.9075   0.0000
  3   -3   -2    0.2243   0.0000
  3    1   -4   -1.8368   0.0000
  2   -1   -5   -0.9776   0.0000


data_phase1

_cell_length_a 5.35548(12)
_cell_length_b 5.61883(12)
_cell_length_c 7.09497(19)
_cell_angle_alpha 90.50862(70)
_cell_angle_beta 104.32403(98)
_cell_angle_gamma 97.29071(51)

_space_group_name_H-M_alt "P -1"
_space_group_IT_coordinate_system_code None

loop_
_atom_site_label
_atom_site_type_symbol
_atom_site_fract_x
_atom_site_fract_y
_atom_site_fract_z
_atom_site_occupancy
_atom_site_adp_type
_atom_site_U_iso_or_equiv
_atom_site_multiplicity
_atom_site_Wyckoff_symbol
  Cu1   Cu2+   0.000000   0.000000   0.000000   1.0   Uiso   0.0025   1   a
   S1      S   0.573320   0.245480   0.295680   1.0   Uiso   0.0025   2   i
   O1    O2-   0.444280   0.257750   0.072250   1.0   Uiso   0.0025   2   i
   O2    O2-   0.833680   0.226600   0.129660   1.0   Uiso   0.0025   2   i
   O3    O2-   0.705860   0.073750   0.352070   1.0   Uiso   0.0025   2   i
   O4    O2-   0.750000   0.494430   0.340440   1.0   Uiso   0.0025   2   i
   N1      N   0.093980   0.869410   0.224700   1.0   Uiso   0.0025   2   i
   D1     2H   0.110870   0.931910   0.381320   1.0   Uiso   0.0025   2   i
   D2     2H   0.915440   0.719560   0.258730   1.0   Uiso   0.0025   2   i
   N2      N   0.261130   0.674870   0.268400   1.0   Uiso   0.0025   2   i
   D3     2H   0.286520   0.596430   0.406230   1.0   Uiso   0.0025   2   i
   D4     2H   0.469340   0.800800   0.299160   1.0   Uiso   0.0025   2   i
   D5     2H   0.207900   0.526100   0.165180   1.0   Uiso   0.0025   2   i

loop_
_atom_site_susceptibility_label
_atom_site_susceptibility_chi_type
_atom_site_susceptibility_chi_11
_atom_site_susceptibility_chi_22
_atom_site_susceptibility_chi_33
_atom_site_susceptibility_chi_12
_atom_site_susceptibility_chi_13
_atom_site_susceptibility_chi_23
  Cu1   Cani   0.04770   0.02392   0.04468   0.01344   0.00384   0.00558

loop_
_atom_site_scat_label
_atom_site_scat_type_symbol
_atom_site_scat_Lande
_atom_site_scat_kappa
  Cu1   Cu2+   2.0   1.0
   O1    O2-   2.0   1.0
   O2    O2-   2.0   1.0
   O3    O2-   2.0   1.0
   O4    O2-   2.0   1.0

